{"resourceType":"Bundle","id":"cdex-scenario8-provider-load-transaction-bundle","type":"transaction","timestamp":"2023-08-29T00:51:00.365457-07:00","entry":[{"fullUrl":"urn:uuid:cba8791e-4640-11ee-94ef-daaf18ab2cba","resource":{"resourceType":"Observation","status":"final","category":[{"coding":[{"system":"http://terminology.hl7.org/CodeSystem/observation-category","code":"laboratory","display":"Laboratory"}],"text":"Laboratory"}],"code":{"coding":[{"system":"http://loinc.org","code":"4548-4","display":"Hemoglobin A1c/Hemoglobin.total in Blood"},{"system":"http://www.ama-assn.org/go/cpt","code":"83036","display":"Hemoglobin; glycosylated (A1c)"},{"system":"http://example.org/lab-results","code":"HBA1C","display":"Glycated hemoglobin (HbA1c)"}],"text":"glycated hemoglobin (HbA1c)"},"subject":{"display":"urn:uuid:cba9521c-4640-11ee-94ef-daaf18ab2cba"},"effectiveDateTime":"2022-06-16T10:21:08-07:00","valueQuantity":{"value":7.2,"unit":"%","system":"http://unitsofmeasure.org","code":"%"}},"request":{"method":"POST","url":"Observation"}},{"fullUrl":"urn:uuid:cba8c91e-4640-11ee-94ef-daaf18ab2cba","resource":{"resourceType":"Patient","meta":{"profile":["http://hl7.org/fhir/us/davinci-cdex/StructureDefinition/cdex-patient-demographics"]},"identifier":[{"use":"usual","type":{"coding":[{"system":"http://hl7.org/fhir/us/davinci-hrex/CodeSystem/hrex-temp","code":"UMB","display":"Member Number"}],"text":"Member Number"},"system":"http://example.org/cdex/payer/member-ids","value":"Member789"}],"name":[{"family":"Zafar","given":["Anne"]}],"birthDate":"1986-02-20"},"request":{"method":"POST","url":"Patient"}},{"fullUrl":"urn:uuid:cba8d81e-4640-11ee-94ef-daaf18ab2cba","resource":{"resourceType":"Patient","meta":{"profile":["http://hl7.org/fhir/us/davinci-cdex/StructureDefinition/cdex-patient-demographics"]},"identifier":[{"use":"usual","type":{"coding":[{"system":"http://hl7.org/fhir/us/davinci-hrex/CodeSystem/hrex-temp","code":"UMB","display":"Member Number"}],"text":"Member Number"},"system":"http://example.org/cdex/payer/member-ids","value":"Member456"}],"name":[{"family":"Sieuwerd","given":["Ratko"]}],"birthDate":"1999-06-19"},"request":{"method":"POST","url":"Patient"}},{"fullUrl":"urn:uuid:cba8e336-4640-11ee-94ef-daaf18ab2cba","resource":{"resourceType":"Group","identifier":[{"system":"http://example.org/fhir/group-ids","value":"group123"}],"active":true,"type":"person","actual":true,"name":"S8 Member List","managingEntity":{"reference":"urn:uuid:cba95bea-4640-11ee-94ef-daaf18ab2cba","identifier":[{"system":"urn:oid:2.16.840.1.113883.6.300","value":"55555"}],"display":"Acme Health Plan"},"characteristic":[{"code":{"coding":[{"system":"http://hl7.org/fhir/us/davinci-atr/CodeSystem/davinci-group-characteristic-codes","code":"organization","display":"Organization"}]},"valueReference":{"reference":"urn:uuid:cba91540-4640-11ee-94ef-daaf18ab2cba","identifier":[{"system":"http://hl7.org/fhir/sid/us-npi","value":"9941339100"}],"display":"Holy HealthCare"}},{"code":{"coding":[{"system":"http://snomed.info/sct","code":"73211009","display":"Diabetes mellitus (disorder)"}]},"valueBoolean":true}],"member":[{"entity":{"identifier":[{"system":"http://example.org/cdex/payer/member-ids","value":"Member123"}]},"period":{"start":"2014-10-08"},"inactive":false},{"entity":{"identifier":[{"system":"http://example.org/cdex/payer/member-ids","value":"Member456"}]},"period":{"start":"2015-04-02"},"inactive":false},{"entity":{"identifier":[{"system":"http://example.org/cdex/payer/member-ids","value":"Member789"}]},"period":{"start":"2016-09-02"},"inactive":false}]},"request":{"method":"POST","url":"Group"}},{"fullUrl":"urn:uuid:cba8f218-4640-11ee-94ef-daaf18ab2cba","resource":{"resourceType":"Observation","status":"final","category":[{"coding":[{"system":"http://terminology.hl7.org/CodeSystem/observation-category","code":"laboratory","display":"Laboratory"}],"text":"Laboratory"}],"code":{"coding":[{"system":"http://loinc.org","code":"4548-4","display":"Hemoglobin A1c/Hemoglobin.total in Blood"},{"system":"http://www.ama-assn.org/go/cpt","code":"83036","display":"Hemoglobin; glycosylated (A1c)"},{"system":"http://example.org/lab-results","code":"HBA1C","display":"Glycated hemoglobin (HbA1c)"}],"text":"glycated hemoglobin (HbA1c)"},"subject":{"display":"urn:uuid:cba8c91e-4640-11ee-94ef-daaf18ab2cba"},"effectiveDateTime":"2022-07-19T09:10:08-07:00","valueQuantity":{"value":7.2,"unit":"%","system":"http://unitsofmeasure.org","code":"%"}},"request":{"method":"POST","url":"Observation"}},{"fullUrl":"urn:uuid:cba90672-4640-11ee-94ef-daaf18ab2cba","resource":{"resourceType":"Observation","status":"final","category":[{"coding":[{"system":"http://terminology.hl7.org/CodeSystem/observation-category","code":"laboratory","display":"Laboratory"}],"text":"Laboratory"}],"code":{"coding":[{"system":"http://loinc.org","code":"4548-4","display":"Hemoglobin A1c/Hemoglobin.total in Blood"},{"system":"http://www.ama-assn.org/go/cpt","code":"83036","display":"Hemoglobin; glycosylated (A1c)"},{"system":"http://example.org/lab-results","code":"HBA1C","display":"Glycated hemoglobin (HbA1c)"}],"text":"glycated hemoglobin (HbA1c)"},"subject":{"display":"urn:uuid:cba8d81e-4640-11ee-94ef-daaf18ab2cba"},"effectiveDateTime":"2022-10-10T10:21:08-07:00","valueQuantity":{"value":7.0,"unit":"%","system":"http://unitsofmeasure.org","code":"%"}},"request":{"method":"POST","url":"Observation"}},{"fullUrl":"urn:uuid:cba91540-4640-11ee-94ef-daaf18ab2cba","resource":{"resourceType":"Organization","meta":{"profile":["http://hl7.org/fhir/us/core/StructureDefinition/us-core-organization",null]},"identifier":[{"system":"http://hl7.org/fhir/sid/us-npi","value":"9941339100"}],"active":true,"type":[{"coding":[{"system":"http://terminology.hl7.org/CodeSystem/organization-type","code":"prov"}],"text":"Provider"}],"name":"Holy Healthcare","telecom":[{"system":"phone","value":"(+1) 555-555-5555"},{"system":"email","value":"hq@holyhealthcare.org"}],"address":[{"line":["100 Managing Organization Avenue"],"city":"Amherst","state":"MA","postalCode":"01002","country":"USA"}]},"request":{"method":"POST","url":"Organization"}},{"fullUrl":"urn:uuid:cba922ce-4640-11ee-94ef-daaf18ab2cba","resource":{"resourceType":"Observation","status":"final","category":[{"coding":[{"system":"http://terminology.hl7.org/CodeSystem/observation-category","code":"laboratory","display":"Laboratory"}],"text":"Laboratory"}],"code":{"coding":[{"system":"http://loinc.org","code":"4548-4","display":"Hemoglobin A1c/Hemoglobin.total in Blood"},{"system":"http://www.ama-assn.org/go/cpt","code":"83036","display":"Hemoglobin; glycosylated (A1c)"},{"system":"http://example.org/lab-results","code":"HBA1C","display":"Glycated hemoglobin (HbA1c)"}],"text":"glycated hemoglobin (HbA1c)"},"subject":{"display":"urn:uuid:cba8d81e-4640-11ee-94ef-daaf18ab2cba"},"effectiveDateTime":"2023-10-12T10:15:15-08:00","valueQuantity":{"value":6.0,"unit":"%","system":"http://unitsofmeasure.org","code":"%"}},"request":{"method":"POST","url":"Observation"}},{"fullUrl":"urn:uuid:cba93610-4640-11ee-94ef-daaf18ab2cba","resource":{"resourceType":"Observation","status":"final","category":[{"coding":[{"system":"http://terminology.hl7.org/CodeSystem/observation-category","code":"laboratory","display":"Laboratory"}],"text":"Laboratory"}],"code":{"coding":[{"system":"http://loinc.org","code":"4548-4","display":"Hemoglobin A1c/Hemoglobin.total in Blood"},{"system":"http://www.ama-assn.org/go/cpt","code":"83036","display":"Hemoglobin; glycosylated (A1c)"},{"system":"http://example.org/lab-results","code":"HBA1C","display":"Glycated hemoglobin (HbA1c)"}],"text":"glycated hemoglobin (HbA1c)"},"subject":{"display":"urn:uuid:cba8d81e-4640-11ee-94ef-daaf18ab2cba"},"effectiveDateTime":"2023-04-10T10:21:08-08:00","valueQuantity":{"value":6.4,"unit":"%","system":"http://unitsofmeasure.org","code":"%"}},"request":{"method":"POST","url":"Observation"}},{"fullUrl":"urn:uuid:cba94830-4640-11ee-94ef-daaf18ab2cba","resource":{"resourceType":"Observation","status":"final","category":[{"coding":[{"system":"http://terminology.hl7.org/CodeSystem/observation-category","code":"laboratory","display":"Laboratory"}],"text":"Laboratory"}],"code":{"coding":[{"system":"http://loinc.org","code":"4548-4","display":"Hemoglobin A1c/Hemoglobin.total in Blood"},{"system":"http://www.ama-assn.org/go/cpt","code":"83036","display":"Hemoglobin; glycosylated (A1c)"},{"system":"http://example.org/lab-results","code":"HBA1C","display":"Glycated hemoglobin (HbA1c)"}],"text":"glycated hemoglobin (HbA1c)"},"subject":{"display":"urn:uuid:cba9521c-4640-11ee-94ef-daaf18ab2cba"},"effectiveDateTime":"2023-08-10T08:21:08-07:00","valueQuantity":{"value":7.9,"unit":"%","system":"http://unitsofmeasure.org","code":"%"}},"request":{"method":"POST","url":"Observation"}},{"fullUrl":"urn:uuid:cba9521c-4640-11ee-94ef-daaf18ab2cba","resource":{"resourceType":"Patient","meta":{"profile":["http://hl7.org/fhir/us/davinci-cdex/StructureDefinition/cdex-patient-demographics"]},"identifier":[{"use":"usual","type":{"coding":[{"system":"http://hl7.org/fhir/us/davinci-hrex/CodeSystem/hrex-temp","code":"UMB","display":"Member Number"}],"text":"Member Number"},"system":"http://example.org/cdex/payer/member-ids","value":"Member123"}],"name":[{"family":"Shaw","given":["Amy"]}],"birthDate":"1987-02-20"},"request":{"method":"POST","url":"Patient"}},{"fullUrl":"urn:uuid:cba95bea-4640-11ee-94ef-daaf18ab2cba","resource":{"resourceType":"Organization","meta":{"profile":["http://hl7.org/fhir/us/davinci-pas/StructureDefinition/profile-insurer"]},"identifier":[{"system":"urn:oid:2.16.840.1.113883.6.300","value":"55555"}],"active":true,"type":[{"coding":[{"system":"https://codesystem.x12.org/005010/98","code":"PR"}]}],"name":"ACME INSURANCE COMPANY"},"request":{"method":"POST","url":"Organization"}},{"fullUrl":"urn:uuid:cba96496-4640-11ee-94ef-daaf18ab2cba","resource":{"resourceType":"Observation","status":"final","category":[{"coding":[{"system":"http://terminology.hl7.org/CodeSystem/observation-category","code":"laboratory","display":"Laboratory"}],"text":"Laboratory"}],"code":{"coding":[{"system":"http://loinc.org","code":"4548-4","display":"Hemoglobin A1c/Hemoglobin.total in Blood"},{"system":"http://www.ama-assn.org/go/cpt","code":"83036","display":"Hemoglobin; glycosylated (A1c)"},{"system":"http://example.org/lab-results","code":"HBA1C","display":"Glycated hemoglobin (HbA1c)"}],"text":"glycated hemoglobin (HbA1c)"},"subject":{"display":"urn:uuid:cba8c91e-4640-11ee-94ef-daaf18ab2cba"},"effectiveDateTime":"2022-12-21T09:15:08-07:00","valueQuantity":{"value":7.0,"unit":"%","system":"http://unitsofmeasure.org","code":"%"}},"request":{"method":"POST","url":"Observation"}},{"fullUrl":"urn:uuid:cba96cd4-4640-11ee-94ef-daaf18ab2cba","resource":{"resourceType":"Observation","status":"final","category":[{"coding":[{"system":"http://terminology.hl7.org/CodeSystem/observation-category","code":"laboratory","display":"Laboratory"}],"text":"Laboratory"}],"code":{"coding":[{"system":"http://loinc.org","code":"4548-4","display":"Hemoglobin A1c/Hemoglobin.total in Blood"},{"system":"http://www.ama-assn.org/go/cpt","code":"83036","display":"Hemoglobin; glycosylated (A1c)"},{"system":"http://example.org/lab-results","code":"HBA1C","display":"Glycated hemoglobin (HbA1c)"}],"text":"glycated hemoglobin (HbA1c)"},"subject":{"display":"urn:uuid:cba8c91e-4640-11ee-94ef-daaf18ab2cba"},"effectiveDateTime":"2023-05-29T10:10:08-07:00","valueQuantity":{"value":6.8,"unit":"%","system":"http://unitsofmeasure.org","code":"%"}},"request":{"method":"POST","url":"Observation"}},{"fullUrl":"urn:uuid:cba9786e-4640-11ee-94ef-daaf18ab2cba","resource":{"resourceType":"Observation","status":"final","category":[{"coding":[{"system":"http://terminology.hl7.org/CodeSystem/observation-category","code":"laboratory","display":"Laboratory"}],"text":"Laboratory"}],"code":{"coding":[{"system":"http://loinc.org","code":"4548-4","display":"Hemoglobin A1c/Hemoglobin.total in Blood"},{"system":"http://www.ama-assn.org/go/cpt","code":"83036","display":"Hemoglobin; glycosylated (A1c)"},{"system":"http://example.org/lab-results","code":"HBA1C","display":"Glycated hemoglobin (HbA1c)"}],"text":"glycated hemoglobin (HbA1c)"},"subject":{"display":"urn:uuid:cba9521c-4640-11ee-94ef-daaf18ab2cba"},"effectiveDateTime":"2023-02-15T10:21:08-08:00","valueQuantity":{"value":6.0,"unit":"%","system":"http://unitsofmeasure.org","code":"%"}},"request":{"method":"POST","url":"Observation"}}]}