{"resourceType":"Bundle","id":"2022-05-US-Core-upload","type":"transaction","timestamp":"2022-05-03T02:52:28.403297+00:00","entry":[{"fullUrl":"http://hapi.fhir.org/baseR4/Patient/202205uscore-patient-example-1","resource":{"resourceType":"Patient","id":"202205uscore-patient-example-1","meta":{"extension":[{"url":"http://hl7.org/fhir/StructureDefinition/instance-name","valueString":"Patient Example"},{"url":"http://hl7.org/fhir/StructureDefinition/instance-description","valueMarkdown":"This is a patient example for the *US Core Patient Profile*."}],"profile":["http://hl7.org/fhir/us/core/StructureDefinition/us-core-patient"],"tag":[{"code":"202201uscore"}]},"extension":[{"extension":[{"url":"ombCategory","valueCoding":{"system":"urn:oid:2.16.840.1.113883.6.238","code":"2106-3","display":"White"}},{"url":"ombCategory","valueCoding":{"system":"urn:oid:2.16.840.1.113883.6.238","code":"1002-5","display":"American Indian or Alaska Native"}},{"url":"ombCategory","valueCoding":{"system":"urn:oid:2.16.840.1.113883.6.238","code":"2028-9","display":"Asian"}},{"url":"detailed","valueCoding":{"system":"urn:oid:2.16.840.1.113883.6.238","code":"1586-7","display":"Shoshone"}},{"url":"detailed","valueCoding":{"system":"urn:oid:2.16.840.1.113883.6.238","code":"2036-2","display":"Filipino"}},{"url":"text","valueString":"Mixed"}],"url":"http://hl7.org/fhir/us/core/StructureDefinition/us-core-race"},{"extension":[{"url":"ombCategory","valueCoding":{"system":"urn:oid:2.16.840.1.113883.6.238","code":"2135-2","display":"Hispanic or Latino"}},{"url":"detailed","valueCoding":{"system":"urn:oid:2.16.840.1.113883.6.238","code":"2184-0","display":"Dominican"}},{"url":"detailed","valueCoding":{"system":"urn:oid:2.16.840.1.113883.6.238","code":"2148-5","display":"Mexican"}},{"url":"text","valueString":"Hispanic or Latino"}],"url":"http://hl7.org/fhir/us/core/StructureDefinition/us-core-ethnicity"},{"url":"http://hl7.org/fhir/us/core/StructureDefinition/us-core-birthsex","valueCode":"F"},{"url":"http://hl7.org/fhir/us/core/StructureDefinition/us-core-genderIdentity","valueCodeableConcept":{"coding":[{"system":"http://terminology.hl7.org/CodeSystem/v3-NullFlavor","code":"ASKU","display":"asked but unknown"}],"text":"asked but unknown"}}],"identifier":[{"use":"usual","type":{"coding":[{"system":"http://terminology.hl7.org/CodeSystem/v2-0203","code":"MR","display":"Medical Record Number"}],"text":"Medical Record Number"},"system":"http://hospital.smarthealthit.org","value":"1032702"}],"active":true,"name":[{"use":"old","family":"Shaw","given":["Amy","V."],"period":{"start":"2016-12-06","end":"2020-07-22"}},{"family":"Baxter","given":["Amy","V."],"suffix":["PharmD"],"period":{"start":"2020-07-22"}}],"telecom":[{"system":"phone","value":"555-555-5555","use":"home"},{"system":"email","value":"amy.shaw@example.com"}],"gender":"female","birthDate":"1987-02-20","address":[{"use":"old","line":["49 Meadow St"],"city":"Mounds","state":"OK","postalCode":"74047","country":"US","period":{"start":"2016-12-06","end":"2020-07-22"}},{"line":["183 Mountain View St"],"city":"Mounds","state":"OK","postalCode":"74048","country":"US","period":{"start":"2020-07-22"}}]},"request":{"method":"PUT","url":"Patient/202205uscore-patient-example-1"}},{"fullUrl":"http://hapi.fhir.org/baseR4/Patient/202205uscore-patient-example-2","resource":{"resourceType":"Patient","id":"202205uscore-patient-example-2","meta":{"extension":[{"url":"http://hl7.org/fhir/StructureDefinition/instance-name","valueString":"Patient Infant Example"},{"url":"http://hl7.org/fhir/StructureDefinition/instance-description","valueMarkdown":"This is a patient infant example for the *US Core Patient Profile*."}],"profile":["http://hl7.org/fhir/us/core/StructureDefinition/us-core-patient"],"tag":[{"code":"202201uscore"}]},"extension":[{"extension":[{"url":"ombCategory","valueCoding":{"system":"urn:oid:2.16.840.1.113883.6.238","code":"2028-9","display":"Asian"}},{"url":"text","valueString":"Asian"}],"url":"http://hl7.org/fhir/us/core/StructureDefinition/us-core-race"},{"extension":[{"url":"ombCategory","valueCoding":{"system":"urn:oid:2.16.840.1.113883.6.238","code":"2186-5","display":"Not Hispanic or Latino"}},{"url":"text","valueString":"Not Hispanic or Latino"}],"url":"http://hl7.org/fhir/us/core/StructureDefinition/us-core-ethnicity"},{"url":"http://hl7.org/fhir/us/core/StructureDefinition/us-core-birthsex","valueCode":"M"}],"identifier":[{"use":"usual","type":{"coding":[{"system":"http://terminology.hl7.org/CodeSystem/v2-0203","code":"MR","display":"Medical Record Number"}],"text":"Medical Record Number"},"system":"http://hospital.smarthealthit.org","value":"1032703"}],"active":true,"name":[{"family":"Example","given":["Infant"]}],"telecom":[{"system":"phone","value":"555-555-5555","use":"home"}],"gender":"male","birthDate":"2020-06-02","address":[{"line":["49 Meadow St"],"city":"Mounds","state":"OK","postalCode":"74047","country":"US"}]},"request":{"method":"PUT","url":"Patient/202205uscore-patient-example-2"}},{"fullUrl":"http://hapi.fhir.org/baseR4/Patient/202205uscore-patient-example-3","resource":{"resourceType":"Patient","id":"202205uscore-patient-example-3","meta":{"extension":[{"url":"http://hl7.org/fhir/StructureDefinition/instance-name","valueString":"Patient Child Example"},{"url":"http://hl7.org/fhir/StructureDefinition/instance-description","valueMarkdown":"This is a patient child example for the *US Core Patient Profile*."}],"profile":["http://hl7.org/fhir/us/core/StructureDefinition/us-core-patient"],"tag":[{"code":"202201uscore"}]},"extension":[{"extension":[{"url":"ombCategory","valueCoding":{"system":"urn:oid:2.16.840.1.113883.6.238","code":"2028-9","display":"Asian"}},{"url":"text","valueString":"Asian"}],"url":"http://hl7.org/fhir/us/core/StructureDefinition/us-core-race"},{"extension":[{"url":"ombCategory","valueCoding":{"system":"urn:oid:2.16.840.1.113883.6.238","code":"2186-5","display":"Not Hispanic or Latino"}},{"url":"text","valueString":"Not Hispanic or Latino"}],"url":"http://hl7.org/fhir/us/core/StructureDefinition/us-core-ethnicity"},{"url":"http://hl7.org/fhir/us/core/StructureDefinition/us-core-birthsex","valueCode":"M"}],"identifier":[{"use":"usual","type":{"coding":[{"system":"http://terminology.hl7.org/CodeSystem/v2-0203","code":"MR","display":"Medical Record Number"}],"text":"Medical Record Number"},"system":"http://hospital.smarthealthit.org","value":"1032704"}],"active":true,"name":[{"family":"Example","given":["Child"]}],"telecom":[{"system":"phone","value":"555-555-5555","use":"home"}],"gender":"male","birthDate":"2016-01-15","address":[{"line":["49 Meadow St"],"city":"Mounds","state":"OK","postalCode":"74047","country":"US"}]},"request":{"method":"PUT","url":"Patient/202205uscore-patient-example-3"}},{"fullUrl":"http://hapi.fhir.org/baseR4/Organization/202205uscore-organization-example-1","resource":{"resourceType":"Organization","id":"202205uscore-organization-example-1","meta":{"extension":[{"url":"http://hl7.org/fhir/StructureDefinition/instance-name","valueString":"Acme Lab Example"},{"url":"http://hl7.org/fhir/StructureDefinition/instance-description","valueMarkdown":"This is a acme lab example for the *US Core Organization Profile*."}],"profile":["http://hl7.org/fhir/us/core/StructureDefinition/us-core-organization"],"tag":[{"code":"202201uscore"}]},"identifier":[{"system":"http://hl7.org/fhir/sid/us-npi","value":"1144221847"},{"system":"urn:oid:2.16.840.1.113883.4.7","value":"12D4567890"}],"active":true,"type":[{"coding":[{"system":"http://terminology.hl7.org/CodeSystem/organization-type","code":"prov","display":"Healthcare Provider"}]}],"name":"Acme Labs","telecom":[{"system":"phone","value":"(+1) 734-677-7777"},{"system":"email","value":"hq@acme.org"}],"address":[{"line":["3300 Washtenaw Avenue, Suite 227"],"city":"Amherst","state":"MA","postalCode":"01002","country":"USA"}]},"request":{"method":"PUT","url":"Organization/202205uscore-organization-example-1"}},{"fullUrl":"http://hapi.fhir.org/baseR4/Organization/202205uscore-organization-example-2","resource":{"resourceType":"Organization","id":"202205uscore-organization-example-2","meta":{"extension":[{"url":"http://hl7.org/fhir/StructureDefinition/instance-name","valueString":"Saint Luke W Endpoint Example"},{"url":"http://hl7.org/fhir/StructureDefinition/instance-description","valueMarkdown":"This is a saint luke w endpoint example for the *US Core Organization Profile*."}],"profile":["http://hl7.org/fhir/us/core/StructureDefinition/us-core-organization"],"tag":[{"code":"202201uscore"}]},"contained":[{"resourceType":"Endpoint","id":"75","status":"active","connectionType":{"system":"http://terminology.hl7.org/CodeSystem/endpoint-connection-type","code":"direct-project"},"name":"Dr. Ronald Bone Direct Address","managingOrganization":{"reference":"Organization/202205uscore-organization-example-3"},"payloadType":[{"coding":[{"system":"urn:oid:1.3.6.1.4.1.19376.1.2.3","code":"urn:hl7-org:sdwg:ccda-structuredBody:1.1"}]}],"payloadMimeType":["text/xml"],"address":"mailto:Interoperability@directaddress.com"}],"identifier":[{"system":"http://hl7.org/fhir/sid/us-npi","value":"1063494177"},{"system":"http://example.org/fhir/us/argo/sid/us-ein","value":"00-0000000"}],"active":true,"name":"Saint Luke's Hospital of Kansas City","telecom":[{"system":"phone","value":"(816)932-2000","use":"work"},{"system":"other","value":"http://www.saintlukeshealthsystem.org/locations/saint-lukes-hospital-kansas-city","use":"work"}],"address":[{"text":"3300 Washtenaw Avenue, Suite 227 Amherst MA 01002","line":["4401 Wornall Rd,"],"city":"Amherst","state":"MA","postalCode":"64111"}],"endpoint":[{"reference":"#75"}]},"request":{"method":"PUT","url":"Organization/202205uscore-organization-example-2"}},{"fullUrl":"http://hapi.fhir.org/baseR4/Organization/202205uscore-organization-example-3","resource":{"resourceType":"Organization","id":"202205uscore-organization-example-3","meta":{"extension":[{"url":"http://hl7.org/fhir/StructureDefinition/instance-name","valueString":"Organization 2 Example"},{"url":"http://hl7.org/fhir/StructureDefinition/instance-description","valueMarkdown":"This is a organization 2 example for the *US Core Organization Profile*."}],"profile":["http://hl7.org/fhir/us/core/StructureDefinition/us-core-organization"],"tag":[{"code":"202201uscore"}]},"identifier":[{"system":"http://hl7.org/fhir/sid/us-npi","value":"1407071236"},{"system":"http://example.org/fhir/sid/us-tin","value":"121111111"}],"active":true,"type":[{"coding":[{"system":"http://terminology.hl7.org/CodeSystem/organization-type","code":"prov","display":"Healthcare Provider"}]}],"name":"Acme Clinic","telecom":[{"system":"phone","value":"(+1) 734-677-7777"},{"system":"email","value":"customer-service@acme-clinic.org"}],"address":[{"line":["3300 Washtenaw Avenue, Suite 227"],"city":"Amherst","state":"MA","postalCode":"01002","country":"USA"}]},"request":{"method":"PUT","url":"Organization/202205uscore-organization-example-3"}},{"fullUrl":"http://hapi.fhir.org/baseR4/Practitioner/202205uscore-practitioner-example-1","resource":{"resourceType":"Practitioner","id":"202205uscore-practitioner-example-1","meta":{"extension":[{"url":"http://hl7.org/fhir/StructureDefinition/instance-name","valueString":"Practitioner 1 Example"},{"url":"http://hl7.org/fhir/StructureDefinition/instance-description","valueMarkdown":"This is a practitioner 1 example for the *US Core Practitioner Profile*."}],"profile":["http://hl7.org/fhir/us/core/StructureDefinition/us-core-practitioner"],"tag":[{"code":"202201uscore"}]},"identifier":[{"system":"http://hl7.org/fhir/sid/us-npi","value":"9941339108"},{"system":"http://www.acme.org/practitioners","value":"25456"}],"name":[{"family":"Bone","given":["Ronald"],"prefix":["Dr"]}],"address":[{"use":"home","line":["1003 Healthcare Drive"],"city":"Amherst","state":"MA","postalCode":"01002"}]},"request":{"method":"PUT","url":"Practitioner/202205uscore-practitioner-example-1"}},{"fullUrl":"http://hapi.fhir.org/baseR4/Practitioner/202205uscore-practitioner-example-2","resource":{"resourceType":"Practitioner","id":"202205uscore-practitioner-example-2","meta":{"extension":[{"url":"http://hl7.org/fhir/StructureDefinition/instance-name","valueString":"Practitioner 2 Example"},{"url":"http://hl7.org/fhir/StructureDefinition/instance-description","valueMarkdown":"This is a practitioner 2 example for the *US Core Practitioner Profile*."}],"profile":["http://hl7.org/fhir/us/core/StructureDefinition/us-core-practitioner"],"tag":[{"code":"202201uscore"}]},"identifier":[{"system":"http://hl7.org/fhir/sid/us-npi","value":"1245319599"},{"system":"http://www.acme.org/practitioners","value":"456789"}],"name":[{"family":"Kathy","given":["Fielding"],"prefix":["Dr"]}],"telecom":[{"extension":[{"url":"http://hl7.org/fhir/us/core/StructureDefinition/us-core-direct","valueBoolean":true}],"system":"email","value":"Kathy.Fielding@direct.ExampleMedicalPractice.net","use":"work"}],"address":[{"use":"work","line":["1080 FIRST COLONIAL RD"],"city":"Virginia Beach","state":"VA","postalCode":"21454-2406"}]},"request":{"method":"PUT","url":"Practitioner/202205uscore-practitioner-example-2"}},{"fullUrl":"http://hapi.fhir.org/baseR4/Location/202205uscore-location-example-1","resource":{"resourceType":"Location","id":"202205uscore-location-example-1","meta":{"extension":[{"url":"http://hl7.org/fhir/StructureDefinition/instance-name","valueString":"Hospital Location"},{"url":"http://hl7.org/fhir/StructureDefinition/instance-description","valueMarkdown":"This is an example hospital location for the *US Core Location Profile*."}],"profile":["http://hl7.org/fhir/us/core/StructureDefinition/us-core-location"],"tag":[{"code":"202201uscore"}]},"status":"active","name":"Holy Family Hospital","telecom":[{"system":"phone","value":"9786870156"}],"address":{"line":["70 EAST STREET"],"city":"METHUEN","state":"MA","postalCode":"01844","country":"US"},"managingOrganization":{"reference":"http://example.org/fhir/Organization/holy-healthcare","display":"Holy Healthcare"}},"request":{"method":"PUT","url":"Location/202205uscore-location-example-1"}},{"fullUrl":"http://hapi.fhir.org/baseR4/Location/202205uscore-location-example-2","resource":{"resourceType":"Location","id":"202205uscore-location-example-2","meta":{"extension":[{"url":"http://hl7.org/fhir/StructureDefinition/instance-name","valueString":"HL7East Example"},{"url":"http://hl7.org/fhir/StructureDefinition/instance-description","valueMarkdown":"This is a HL7East example for the *US Core Location Profile*."}],"profile":["http://hl7.org/fhir/us/core/StructureDefinition/us-core-location"],"tag":[{"code":"202201uscore"}]},"identifier":[{"system":"http://www.acme.org/location","value":"29"}],"status":"active","name":"Health Level Seven International - Amherst","description":"HL7 Headquarters - East","telecom":[{"system":"phone","value":"(+1) 734-677-7777"}],"address":{"line":["3300 Washtenaw Avenue, Suite 227"],"city":"Amherst","state":"MA","postalCode":"01002","country":"USA"},"position":{"longitude":-72.519854,"latitude":42.373222},"managingOrganization":{"display":"Health Level Seven International"}},"request":{"method":"PUT","url":"Location/202205uscore-location-example-2"}},{"fullUrl":"http://hapi.fhir.org/baseR4/Encounter/202205uscore-encounter-example-1","resource":{"resourceType":"Encounter","id":"202205uscore-encounter-example-1","meta":{"extension":[{"url":"http://hl7.org/fhir/StructureDefinition/instance-name","valueString":"Encounter Delivery Example"},{"url":"http://hl7.org/fhir/StructureDefinition/instance-description","valueMarkdown":"This is a patient delivery encounter example for the *Encounter Profile*."}],"profile":["http://hl7.org/fhir/us/core/StructureDefinition/us-core-encounter"],"tag":[{"code":"202201uscore"}]},"status":"finished","class":{"system":"http://terminology.hl7.org/CodeSystem/v3-ActCode","code":"IMP","display":"inpatient encounter"},"type":[{"coding":[{"system":"http://snomed.info/sct","code":"177184002","display":"Normal delivery procedure (procedure)"}],"text":"Normal delivery procedure (procedure)"}],"subject":{"reference":"Patient/202205uscore-patient-example-1","display":"Amy V. Shaw"},"location":[{"location":{"reference":"Location/202205uscore-location-example-1","display":"Holy Family Hospital"}}]},"request":{"method":"PUT","url":"Encounter/202205uscore-encounter-example-1"}},{"fullUrl":"http://hapi.fhir.org/baseR4/Encounter/202205uscore-encounter-example-2","resource":{"resourceType":"Encounter","id":"202205uscore-encounter-example-2","meta":{"extension":[{"url":"http://hl7.org/fhir/StructureDefinition/instance-name","valueString":"Encounter 1036 Example"},{"url":"http://hl7.org/fhir/StructureDefinition/instance-description","valueMarkdown":"This is a encounter 1036 example for the *Encounter Profile*."}],"profile":["http://hl7.org/fhir/us/core/StructureDefinition/us-core-encounter"],"tag":[{"code":"202201uscore"}]},"status":"in-progress","class":{"system":"http://terminology.hl7.org/CodeSystem/v3-ActCode","code":"IMP","display":"inpatient encounter"},"type":[{"coding":[{"system":"http://snomed.info/sct","code":"261665006","display":"Unknown (qualifier value)"}],"text":"Unknown (qualifier value)"}],"subject":{"reference":"Patient/202205uscore-patient-example-1"},"hospitalization":{"dischargeDisposition":{"coding":[{"system":"http://www.nubc.org/patient-discharge","code":"01","display":"Discharged to Home"}]}},"location":[{"location":{"reference":"Location/202205uscore-location-example-1","display":"Holy Family Hospital"}}]},"request":{"method":"PUT","url":"Encounter/202205uscore-encounter-example-2"}},{"fullUrl":"http://hapi.fhir.org/baseR4/Encounter/202205uscore-encounter-example-3","resource":{"resourceType":"Encounter","id":"202205uscore-encounter-example-3","meta":{"extension":[{"url":"http://hl7.org/fhir/StructureDefinition/instance-name","valueString":"Encounter 1 Example"},{"url":"http://hl7.org/fhir/StructureDefinition/instance-description","valueMarkdown":"This is a encounter 1 example for the *US Core Encounter Profile*."}],"lastUpdated":"2017-05-26T11:56:57.250000-04:00","profile":["http://hl7.org/fhir/us/core/StructureDefinition/us-core-encounter"],"tag":[{"code":"202201uscore"}]},"status":"finished","class":{"system":"http://terminology.hl7.org/CodeSystem/v3-ActCode","code":"AMB","display":"ambulatory"},"type":[{"coding":[{"system":"http://www.ama-assn.org/go/cpt","code":"99201"}],"text":"Office Visit"}],"subject":{"reference":"Patient/202205uscore-patient-example-1"},"period":{"start":"2015-11-01T17:00:14-05:00","end":"2015-11-01T18:00:14-05:00"}},"request":{"method":"PUT","url":"Encounter/202205uscore-encounter-example-3"}},{"fullUrl":"http://hapi.fhir.org/baseR4/Observation/202205uscore-observation-example-1","resource":{"resourceType":"Observation","id":"202205uscore-observation-example-1","meta":{"extension":[{"url":"http://hl7.org/fhir/StructureDefinition/instance-name","valueString":"Respiratory Rate Example"},{"url":"http://hl7.org/fhir/StructureDefinition/instance-description","valueMarkdown":"This is a respiratory rate example for the *Vitalsigns Profile*."}],"profile":["http://hl7.org/fhir/us/core/StructureDefinition/us-core-respiratory-rate"],"tag":[{"code":"202201uscore"}]},"status":"final","category":[{"coding":[{"system":"http://terminology.hl7.org/CodeSystem/observation-category","code":"vital-signs","display":"Vital Signs"}],"text":"Vital Signs"}],"code":{"coding":[{"system":"http://loinc.org","code":"9279-1","display":"Respiratory rate"}],"text":"respiratory_rate"},"subject":{"reference":"Patient/202205uscore-patient-example-1","display":"Amy Shaw"},"encounter":{"display":"GP Visit"},"effectiveDateTime":"1999-07-02","valueQuantity":{"value":26.0,"unit":"breaths per minute","system":"http://unitsofmeasure.org","code":"/min"}},"request":{"method":"PUT","url":"Observation/202205uscore-observation-example-1"}},{"fullUrl":"http://hapi.fhir.org/baseR4/Observation/202205uscore-observation-example-2","resource":{"resourceType":"Observation","id":"202205uscore-observation-example-2","meta":{"extension":[{"url":"http://hl7.org/fhir/StructureDefinition/instance-name","valueString":"Ahc-Hrsn Item Example 69858-9"},{"url":"http://hl7.org/fhir/StructureDefinition/instance-description","valueMarkdown":"This is a Ahc-Hrsn Item Example 69858-9 (Because of a physical, mental, or emotional condition, do you have serious difficulty concentrating, remembering, or making decisions?) for the *US Core Screening Response Observation Profile*"}],"profile":["http://hl7.org/fhir/us/core/StructureDefinition/us-core-observation-sdoh-assessment"],"tag":[{"code":"202201uscore"}]},"status":"final","category":[{"coding":[{"system":"http://hl7.org/fhir/us/core/CodeSystem/us-core-tags","code":"sdoh","display":"SDOH"}]},{"coding":[{"system":"http://terminology.hl7.org/CodeSystem/observation-category","code":"survey","display":"Survey"}]}],"code":{"coding":[{"system":"http://loinc.org","code":"69858-9","display":"Because of a physical, mental, or emotional condition, do you have serious difficulty concentrating, remembering, or making decisions?"}],"text":"Because of a physical, mental, or emotional condition, do you have serious difficulty concentrating, remembering, or making decisions?"},"subject":{"reference":"Patient/202205uscore-patient-example-1"},"effectiveDateTime":"2022-03-29T22:38:59.084000+00:00","performer":[{"reference":"Patient/202205uscore-patient-example-1"}],"valueCodeableConcept":{"coding":[{"system":"http://loinc.org","code":"LA32-8","display":"No"}],"text":"No"},"derivedFrom":[{"reference":"QuestionnaireResponse/202205uscore-questionnaireresponse-example-3","display":"US Core QuestionnaireResponse AHC HRSN Screening-Example Example"}]},"request":{"method":"PUT","url":"Observation/202205uscore-observation-example-2"}},{"fullUrl":"http://hapi.fhir.org/baseR4/Observation/202205uscore-observation-example-3","resource":{"resourceType":"Observation","id":"202205uscore-observation-example-3","meta":{"extension":[{"url":"http://hl7.org/fhir/StructureDefinition/instance-name","valueString":"Prapare Multiselect-Item Example 93031-3-Answer0"},{"url":"http://hl7.org/fhir/StructureDefinition/instance-description","valueMarkdown":"This is a Prapare Multiselect-Item Example 93031-3-Answer0 (In the past year, have you or any family members you live with been unable to get any of the following when it was really needed?) for the *US Core Screening Response Observation Profile*"}],"profile":["http://hl7.org/fhir/us/core/StructureDefinition/us-core-observation-sdoh-assessment"],"tag":[{"code":"202201uscore"}]},"status":"final","category":[{"coding":[{"system":"http://hl7.org/fhir/us/core/CodeSystem/us-core-tags","code":"sdoh","display":"SDOH"}]},{"coding":[{"system":"http://terminology.hl7.org/CodeSystem/observation-category","code":"survey","display":"Survey"}]}],"code":{"coding":[{"system":"http://loinc.org","code":"93031-3","display":"In the past year, have you or any family members you live with been unable to get any of the following when it was really needed?"}],"text":"In the past year, have you or any family members you live with been unable to get any of the following when it was really needed?"},"subject":{"reference":"Patient/202205uscore-patient-example-1"},"effectiveDateTime":"2022-03-28T18:30:40-07:00","performer":[{"reference":"Patient/202205uscore-patient-example-1"}],"valueCodeableConcept":{"coding":[{"system":"http://loinc.org","code":"LA30126-9","display":"Clothing"}],"text":"Clothing"},"derivedFrom":[{"reference":"QuestionnaireResponse/202205uscore-questionnaireresponse-example-1","display":"US Core QuestionnaireResponse PRAPARE Example"}]},"request":{"method":"PUT","url":"Observation/202205uscore-observation-example-3"}},{"fullUrl":"http://hapi.fhir.org/baseR4/Observation/202205uscore-observation-example-4","resource":{"resourceType":"Observation","id":"202205uscore-observation-example-4","meta":{"extension":[{"url":"http://hl7.org/fhir/StructureDefinition/instance-name","valueString":"Neutrophils Example"},{"url":"http://hl7.org/fhir/StructureDefinition/instance-description","valueMarkdown":"This is a neutrophils example for the *US Core Observation Lab Profile*."}],"versionId":"1106","lastUpdated":"2016-03-09T15:29:58.052000+00:00","profile":["http://hl7.org/fhir/us/core/StructureDefinition/us-core-observation-lab"],"tag":[{"code":"202201uscore"}]},"status":"final","category":[{"coding":[{"system":"http://terminology.hl7.org/CodeSystem/observation-category","code":"laboratory","display":"Laboratory"}],"text":"Laboratory"}],"code":{"coding":[{"system":"http://loinc.org","code":"770-8","display":"Neutrophils/100 leukocytes in Blood by Automated count"}],"text":"Neutrophils %"},"subject":{"reference":"Patient/202205uscore-patient-example-1","display":"Amy Shaw"},"effectiveDateTime":"2005-07-05","valueQuantity":{"value":40.0,"unit":"%","system":"http://unitsofmeasure.org"},"referenceRange":[{"low":{"value":37.0,"unit":"%","system":"http://unitsofmeasure.org","code":"%"},"high":{"value":67.0,"unit":"%","system":"http://unitsofmeasure.org","code":"%"},"type":{"coding":[{"system":"http://terminology.hl7.org/CodeSystem/referencerange-meaning","code":"normal","display":"Normal Range"}],"text":"Normal Range"}}]},"request":{"method":"PUT","url":"Observation/202205uscore-observation-example-4"}},{"fullUrl":"http://hapi.fhir.org/baseR4/Observation/202205uscore-observation-example-5","resource":{"resourceType":"Observation","id":"202205uscore-observation-example-5","meta":{"extension":[{"url":"http://hl7.org/fhir/StructureDefinition/instance-name","valueString":"Ahc-Hrsn Item Example 93038-8"},{"url":"http://hl7.org/fhir/StructureDefinition/instance-description","valueMarkdown":"This is a Ahc-Hrsn Item Example 93038-8 (Stress means a situation in which a person feels tense, restless, nervous, or anxious, or is unable to sleep at night because his or her mind is troubled all the time.  Do you feel this kind of stress these days?) for the *US Core Screening Response Observation Profile*"}],"profile":["http://hl7.org/fhir/us/core/StructureDefinition/us-core-observation-sdoh-assessment"],"tag":[{"code":"202201uscore"}]},"status":"final","category":[{"coding":[{"system":"http://hl7.org/fhir/us/core/CodeSystem/us-core-tags","code":"sdoh","display":"SDOH"}]},{"coding":[{"system":"http://terminology.hl7.org/CodeSystem/observation-category","code":"survey","display":"Survey"}]}],"code":{"coding":[{"system":"http://loinc.org","code":"93038-8","display":"Stress level"}],"text":"Stress means a situation in which a person feels tense, restless, nervous, or anxious, or is unable to sleep at night because his or her mind is troubled all the time.  Do you feel this kind of stress these days?"},"subject":{"reference":"Patient/202205uscore-patient-example-1"},"effectiveDateTime":"2022-03-29T22:38:59.084000+00:00","performer":[{"reference":"Patient/202205uscore-patient-example-1"}],"valueCodeableConcept":{"coding":[{"system":"http://loinc.org","code":"LA13863-8","display":"A little bit"}],"text":"A little bit"},"derivedFrom":[{"reference":"QuestionnaireResponse/202205uscore-questionnaireresponse-example-3","display":"US Core QuestionnaireResponse AHC HRSN Screening-Example Example"}]},"request":{"method":"PUT","url":"Observation/202205uscore-observation-example-5"}},{"fullUrl":"http://hapi.fhir.org/baseR4/Observation/202205uscore-observation-example-6","resource":{"resourceType":"Observation","id":"202205uscore-observation-example-6","meta":{"extension":[{"url":"http://hl7.org/fhir/StructureDefinition/instance-name","valueString":"EKG lead Example"},{"url":"http://hl7.org/fhir/StructureDefinition/instance-description","valueMarkdown":"This is a EKG lead Example for the *Clinical Test Result Observation Profile*."}],"profile":["http://hl7.org/fhir/us/core/StructureDefinition/us-core-observation-clinical-test"],"tag":[{"code":"202201uscore"}]},"status":"final","category":[{"coding":[{"system":"http://hl7.org/fhir/us/core/CodeSystem/us-core-observation-category","code":"clinical-test","display":"Clinical Test"}],"text":"Clinical Test"}],"code":{"coding":[{"system":"http://loinc.org","code":"44967-8","display":"EKG lead"}],"text":"EKG lead"},"subject":{"reference":"Patient/202205uscore-patient-example-1","display":"Amy Shaw"},"encounter":{"display":"Cardiology Consult"},"effectiveDateTime":"2021-11-10T16:48:57.246958-08:00","valueString":"II"},"request":{"method":"PUT","url":"Observation/202205uscore-observation-example-6"}},{"fullUrl":"http://hapi.fhir.org/baseR4/Observation/202205uscore-observation-example-7","resource":{"resourceType":"Observation","id":"202205uscore-observation-example-7","meta":{"extension":[{"url":"http://hl7.org/fhir/StructureDefinition/instance-name","valueString":"Prapare Item Example 54899-0"},{"url":"http://hl7.org/fhir/StructureDefinition/instance-description","valueMarkdown":"This is a Prapare Item Example 54899-0 (Preferred language) for the *US Core Screening Response Observation Profile*"}],"profile":["http://hl7.org/fhir/us/core/StructureDefinition/us-core-observation-sdoh-assessment"],"tag":[{"code":"202201uscore"}]},"status":"final","category":[{"coding":[{"system":"http://hl7.org/fhir/us/core/CodeSystem/us-core-tags","code":"sdoh","display":"SDOH"}]},{"coding":[{"system":"http://terminology.hl7.org/CodeSystem/observation-category","code":"survey","display":"Survey"}]}],"code":{"coding":[{"system":"http://loinc.org","code":"54899-0","display":"Preferred language"}],"text":"Preferred language"},"subject":{"reference":"Patient/202205uscore-patient-example-1"},"effectiveDateTime":"2022-03-28T18:30:40-07:00","performer":[{"reference":"Patient/202205uscore-patient-example-1"}],"valueCodeableConcept":{"coding":[{"system":"http://loinc.org","code":"LA43-5","display":"English"}],"text":"English"},"derivedFrom":[{"reference":"QuestionnaireResponse/202205uscore-questionnaireresponse-example-1","display":"US Core QuestionnaireResponse PRAPARE Example"}]},"request":{"method":"PUT","url":"Observation/202205uscore-observation-example-7"}},{"fullUrl":"http://hapi.fhir.org/baseR4/Observation/202205uscore-observation-example-8","resource":{"resourceType":"Observation","id":"202205uscore-observation-example-8","meta":{"extension":[{"url":"http://hl7.org/fhir/StructureDefinition/instance-name","valueString":"Blood Pressure Example"},{"url":"http://hl7.org/fhir/StructureDefinition/instance-description","valueMarkdown":"This is a blood pressure example for the *Vitalsigns Profile*."}],"profile":["http://hl7.org/fhir/us/core/StructureDefinition/us-core-blood-pressure"],"tag":[{"code":"202201uscore"}]},"status":"final","category":[{"coding":[{"system":"http://terminology.hl7.org/CodeSystem/observation-category","code":"vital-signs","display":"Vital Signs"}],"text":"Vital Signs"}],"code":{"coding":[{"system":"http://loinc.org","code":"85354-9","display":"Blood pressure panel with all children optional"}],"text":"Blood pressure systolic and diastolic"},"subject":{"reference":"Patient/202205uscore-patient-example-1","display":"Amy Shaw"},"encounter":{"display":"GP Visit"},"effectiveDateTime":"1999-07-02","component":[{"code":{"coding":[{"system":"http://loinc.org","code":"8480-6","display":"Systolic blood pressure"}],"text":"Systolic blood pressure"},"valueQuantity":{"value":109,"unit":"mmHg","system":"http://unitsofmeasure.org","code":"mm[Hg]"}},{"code":{"coding":[{"system":"http://loinc.org","code":"8462-4","display":"Diastolic blood pressure"}],"text":"Diastolic blood pressure"},"valueQuantity":{"value":44,"unit":"mmHg","system":"http://unitsofmeasure.org","code":"mm[Hg]"}}]},"request":{"method":"PUT","url":"Observation/202205uscore-observation-example-8"}},{"fullUrl":"http://hapi.fhir.org/baseR4/Observation/202205uscore-observation-example-9","resource":{"resourceType":"Observation","id":"202205uscore-observation-example-9","meta":{"extension":[{"url":"http://hl7.org/fhir/StructureDefinition/instance-name","valueString":"Prapare Item Example 93027-1"},{"url":"http://hl7.org/fhir/StructureDefinition/instance-description","valueMarkdown":"This is a Prapare Item Example 93027-1 (Are you a refugee?) for the *US Core Screening Response Observation Profile*"}],"profile":["http://hl7.org/fhir/us/core/StructureDefinition/us-core-observation-sdoh-assessment"],"tag":[{"code":"202201uscore"}]},"status":"final","category":[{"coding":[{"system":"http://hl7.org/fhir/us/core/CodeSystem/us-core-tags","code":"sdoh","display":"SDOH"}]},{"coding":[{"system":"http://terminology.hl7.org/CodeSystem/observation-category","code":"survey","display":"Survey"}]}],"code":{"coding":[{"system":"http://loinc.org","code":"93027-1","display":"Are you a refugee?"}],"text":"Are you a refugee?"},"subject":{"reference":"Patient/202205uscore-patient-example-1"},"effectiveDateTime":"2022-03-28T18:30:40-07:00","performer":[{"reference":"Patient/202205uscore-patient-example-1"}],"valueCodeableConcept":{"coding":[{"system":"http://loinc.org","code":"LA32-8","display":"No"}],"text":"No"},"derivedFrom":[{"reference":"QuestionnaireResponse/202205uscore-questionnaireresponse-example-1","display":"US Core QuestionnaireResponse PRAPARE Example"}]},"request":{"method":"PUT","url":"Observation/202205uscore-observation-example-9"}},{"fullUrl":"http://hapi.fhir.org/baseR4/Observation/202205uscore-observation-example-10","resource":{"resourceType":"Observation","id":"202205uscore-observation-example-10","meta":{"extension":[{"url":"http://hl7.org/fhir/StructureDefinition/instance-name","valueString":"Prapare Panel Example 93025-5"},{"url":"http://hl7.org/fhir/StructureDefinition/instance-description","valueMarkdown":"This is a Prapare Panel Example 93025-5 (Protocol for Responding to and Assessing Patients' Assets, Risks, and Experiences [PRAPARE]) for the *US Core Screening Response Observation Profile*"}],"profile":["http://hl7.org/fhir/us/core/StructureDefinition/us-core-observation-sdoh-assessment"],"tag":[{"code":"202201uscore"}]},"status":"final","category":[{"coding":[{"system":"http://hl7.org/fhir/us/core/CodeSystem/us-core-tags","code":"sdoh","display":"SDOH"}]},{"coding":[{"system":"http://terminology.hl7.org/CodeSystem/observation-category","code":"survey","display":"Survey"}]}],"code":{"coding":[{"system":"http://loinc.org","code":"93025-5","display":"Protocol for Responding to and Assessing Patients' Assets, Risks, and Experiences [PRAPARE]"}],"text":"Protocol for Responding to and Assessing Patients' Assets, Risks, and Experiences"},"subject":{"reference":"Patient/202205uscore-patient-example-1"},"effectiveDateTime":"2022-03-28T18:30:40-07:00","performer":[{"reference":"Patient/202205uscore-patient-example-1"}],"hasMember":[{"reference":"Observation/202205uscore-observation-example-83"},{"reference":"Observation/202205uscore-observation-example-91"},{"reference":"Observation/202205uscore-observation-example-68"},{"reference":"Observation/202205uscore-observation-example-48"},{"reference":"Observation/202205uscore-observation-example-85"}],"derivedFrom":[{"reference":"QuestionnaireResponse/202205uscore-questionnaireresponse-example-1","display":"US Core QuestionnaireResponse PRAPARE Example"}]},"request":{"method":"PUT","url":"Observation/202205uscore-observation-example-10"}},{"fullUrl":"http://hapi.fhir.org/baseR4/Observation/202205uscore-observation-example-11","resource":{"resourceType":"Observation","id":"202205uscore-observation-example-11","meta":{"extension":[{"url":"http://hl7.org/fhir/StructureDefinition/instance-name","valueString":"Hvs Item Example 88124-3"},{"url":"http://hl7.org/fhir/StructureDefinition/instance-description","valueMarkdown":"This is a Hvs Item Example 88124-3 (Food insecurity risk) for the *US Core Screening Response Observation Profile*"}],"profile":["http://hl7.org/fhir/us/core/StructureDefinition/us-core-observation-sdoh-assessment"],"tag":[{"code":"202201uscore"}]},"status":"final","category":[{"coding":[{"system":"http://hl7.org/fhir/us/core/CodeSystem/us-core-tags","code":"sdoh","display":"SDOH"}]},{"coding":[{"system":"http://terminology.hl7.org/CodeSystem/observation-category","code":"survey","display":"Survey"}]}],"code":{"coding":[{"system":"http://loinc.org","code":"88124-3","display":"Food insecurity risk [HVS]"}],"text":"Food insecurity risk"},"subject":{"reference":"Patient/202205uscore-patient-example-1"},"effectiveDateTime":"2020-09-10T21:56:54.671000+00:00","performer":[{"reference":"Patient/202205uscore-patient-example-1"}],"valueCodeableConcept":{"coding":[{"system":"http://loinc.org","code":"LA19952-3","display":"At risk"}],"text":"At risk"},"derivedFrom":[{"reference":"QuestionnaireResponse/202205uscore-questionnaireresponse-example-4","display":"US Core QuestionnaireResponse Hunger Vital Sign Example"}]},"request":{"method":"PUT","url":"Observation/202205uscore-observation-example-11"}},{"fullUrl":"http://hapi.fhir.org/baseR4/Observation/202205uscore-observation-example-12","resource":{"resourceType":"Observation","id":"202205uscore-observation-example-12","meta":{"extension":[{"url":"http://hl7.org/fhir/StructureDefinition/instance-name","valueString":"Ahc-Hrsn Item Example 96842-0"},{"url":"http://hl7.org/fhir/StructureDefinition/instance-description","valueMarkdown":"This is a Ahc-Hrsn Item Example 96842-0 (How often have you used any tobacco product in past 12 months?) for the *US Core Screening Response Observation Profile*"}],"profile":["http://hl7.org/fhir/us/core/StructureDefinition/us-core-observation-sdoh-assessment"],"tag":[{"code":"202201uscore"}]},"status":"final","category":[{"coding":[{"system":"http://hl7.org/fhir/us/core/CodeSystem/us-core-tags","code":"sdoh","display":"SDOH"}]},{"coding":[{"system":"http://terminology.hl7.org/CodeSystem/observation-category","code":"survey","display":"Survey"}]}],"code":{"coding":[{"system":"http://loinc.org","code":"96842-0","display":"Tobacco freq 12Mo"}],"text":"How often have you used any tobacco product in past 12 months?"},"subject":{"reference":"Patient/202205uscore-patient-example-1"},"effectiveDateTime":"2022-03-29T22:38:59.084000+00:00","performer":[{"reference":"Patient/202205uscore-patient-example-1"}],"valueCodeableConcept":{"coding":[{"system":"http://loinc.org","code":"LA6270-8","display":"Never"}],"text":"Never"},"derivedFrom":[{"reference":"QuestionnaireResponse/202205uscore-questionnaireresponse-example-3","display":"US Core QuestionnaireResponse AHC HRSN Screening-Example Example"}]},"request":{"method":"PUT","url":"Observation/202205uscore-observation-example-12"}},{"fullUrl":"http://hapi.fhir.org/baseR4/Observation/202205uscore-observation-example-13","resource":{"resourceType":"Observation","id":"202205uscore-observation-example-13","meta":{"extension":[{"url":"http://hl7.org/fhir/StructureDefinition/instance-name","valueString":"Prapare Item Example 67875-5"},{"url":"http://hl7.org/fhir/StructureDefinition/instance-description","valueMarkdown":"This is a Prapare Item Example 67875-5 (Employment status current) for the *US Core Screening Response Observation Profile*"}],"profile":["http://hl7.org/fhir/us/core/StructureDefinition/us-core-observation-sdoh-assessment"],"tag":[{"code":"202201uscore"}]},"status":"final","category":[{"coding":[{"system":"http://hl7.org/fhir/us/core/CodeSystem/us-core-tags","code":"sdoh","display":"SDOH"}]},{"coding":[{"system":"http://terminology.hl7.org/CodeSystem/observation-category","code":"survey","display":"Survey"}]}],"code":{"coding":[{"system":"http://loinc.org","code":"67875-5","display":"Employment status current"}],"text":"Employment status current"},"subject":{"reference":"Patient/202205uscore-patient-example-1"},"effectiveDateTime":"2022-03-28T18:30:40-07:00","performer":[{"reference":"Patient/202205uscore-patient-example-1"}],"valueCodeableConcept":{"coding":[{"system":"http://loinc.org","code":"LA17956-6","display":"Unemployed"}],"text":"Unemployed"},"derivedFrom":[{"reference":"QuestionnaireResponse/202205uscore-questionnaireresponse-example-1","display":"US Core QuestionnaireResponse PRAPARE Example"}]},"request":{"method":"PUT","url":"Observation/202205uscore-observation-example-13"}},{"fullUrl":"http://hapi.fhir.org/baseR4/Observation/202205uscore-observation-example-14","resource":{"resourceType":"Observation","id":"202205uscore-observation-example-14","meta":{"extension":[{"url":"http://hl7.org/fhir/StructureDefinition/instance-name","valueString":"Pulse intensity Palpation Example"},{"url":"http://hl7.org/fhir/StructureDefinition/instance-description","valueMarkdown":"This is a Pulse intensity Palpation Example for the *Clinical Test Result Observation Profile*."}],"profile":["http://hl7.org/fhir/us/core/StructureDefinition/us-core-observation-clinical-test"],"tag":[{"code":"202201uscore"}]},"status":"final","category":[{"coding":[{"system":"http://hl7.org/fhir/us/core/CodeSystem/us-core-observation-category","code":"clinical-test","display":"Clinical Test"}],"text":"Clinical Test"}],"code":{"coding":[{"system":"http://loinc.org","code":"44974-4","display":"Pulse intensity Palpation"}],"text":"Pulse intensity Palpation"},"subject":{"reference":"Patient/202205uscore-patient-example-1","display":"Amy Shaw"},"encounter":{"display":"Cardiology Consult"},"effectiveDateTime":"2021-11-10T16:48:57.246958-08:00","valueCodeableConcept":{"coding":[{"system":"http://loinc.org","code":"LA11841-6","display":"1+"}],"text":"1+"}},"request":{"method":"PUT","url":"Observation/202205uscore-observation-example-14"}},{"fullUrl":"http://hapi.fhir.org/baseR4/Observation/202205uscore-observation-example-15","resource":{"resourceType":"Observation","id":"202205uscore-observation-example-15","meta":{"extension":[{"url":"http://hl7.org/fhir/StructureDefinition/instance-name","valueString":"Ahc-Hrsn Item Example 44250-9"},{"url":"http://hl7.org/fhir/StructureDefinition/instance-description","valueMarkdown":"This is a Ahc-Hrsn Item Example 44250-9 (Little interest or pleasure in doing things?) for the *US Core Screening Response Observation Profile*"}],"profile":["http://hl7.org/fhir/us/core/StructureDefinition/us-core-observation-sdoh-assessment"],"tag":[{"code":"202201uscore"}]},"status":"final","category":[{"coding":[{"system":"http://hl7.org/fhir/us/core/CodeSystem/us-core-tags","code":"sdoh","display":"SDOH"}]},{"coding":[{"system":"http://terminology.hl7.org/CodeSystem/observation-category","code":"survey","display":"Survey"}]}],"code":{"coding":[{"system":"http://loinc.org","code":"44250-9","display":"Little interest or pleasure in doing things in last 2 weeks"}],"text":"Little interest or pleasure in doing things?"},"subject":{"reference":"Patient/202205uscore-patient-example-1"},"effectiveDateTime":"2022-03-29T22:38:59.084000+00:00","performer":[{"reference":"Patient/202205uscore-patient-example-1"}],"valueCodeableConcept":{"coding":[{"system":"http://loinc.org","code":"LA6568-5","display":"Not at all"}],"text":"Not at all"},"derivedFrom":[{"reference":"QuestionnaireResponse/202205uscore-questionnaireresponse-example-3","display":"US Core QuestionnaireResponse AHC HRSN Screening-Example Example"}]},"request":{"method":"PUT","url":"Observation/202205uscore-observation-example-15"}},{"fullUrl":"http://hapi.fhir.org/baseR4/Observation/202205uscore-observation-example-16","resource":{"resourceType":"Observation","id":"202205uscore-observation-example-16","meta":{"extension":[{"url":"http://hl7.org/fhir/StructureDefinition/instance-name","valueString":"QRS dur {EKG lead} Example"},{"url":"http://hl7.org/fhir/StructureDefinition/instance-description","valueMarkdown":"This is a QRS dur {EKG lead} Example for the *Clinical Test Result Observation Profile*."}],"profile":["http://hl7.org/fhir/us/core/StructureDefinition/us-core-observation-clinical-test"],"tag":[{"code":"202201uscore"}]},"status":"final","category":[{"coding":[{"system":"http://hl7.org/fhir/us/core/CodeSystem/us-core-observation-category","code":"clinical-test","display":"Clinical Test"}],"text":"Clinical Test"}],"code":{"coding":[{"system":"http://loinc.org","code":"44973-6","display":"QRS dur {EKG lead}"}],"text":"QRS dur {EKG lead}"},"subject":{"reference":"Patient/202205uscore-patient-example-1","display":"Amy Shaw"},"encounter":{"display":"Cardiology Consult"},"effectiveDateTime":"2021-11-10T16:48:57.246958-08:00","valueQuantity":{"value":60,"unit":"ms","system":"http://unitsofmeasure.org","code":"ms"}},"request":{"method":"PUT","url":"Observation/202205uscore-observation-example-16"}},{"fullUrl":"http://hapi.fhir.org/baseR4/Observation/202205uscore-observation-example-17","resource":{"resourceType":"Observation","id":"202205uscore-observation-example-17","meta":{"extension":[{"url":"http://hl7.org/fhir/StructureDefinition/instance-name","valueString":"Prapare Item Example 76437-3"},{"url":"http://hl7.org/fhir/StructureDefinition/instance-description","valueMarkdown":"This is a Prapare Item Example 76437-3 (Primary insurance) for the *US Core Screening Response Observation Profile*"}],"profile":["http://hl7.org/fhir/us/core/StructureDefinition/us-core-observation-sdoh-assessment"],"tag":[{"code":"202201uscore"}]},"status":"final","category":[{"coding":[{"system":"http://hl7.org/fhir/us/core/CodeSystem/us-core-tags","code":"sdoh","display":"SDOH"}]},{"coding":[{"system":"http://terminology.hl7.org/CodeSystem/observation-category","code":"survey","display":"Survey"}]}],"code":{"coding":[{"system":"http://loinc.org","code":"76437-3","display":"Primary insurance"}],"text":"Primary insurance"},"subject":{"reference":"Patient/202205uscore-patient-example-1"},"effectiveDateTime":"2022-03-28T18:30:40-07:00","performer":[{"reference":"Patient/202205uscore-patient-example-1"}],"valueCodeableConcept":{"coding":[{"system":"http://loinc.org","code":"LA17849-3","display":"Medicaid"}],"text":"Medicaid"},"derivedFrom":[{"reference":"QuestionnaireResponse/202205uscore-questionnaireresponse-example-1","display":"US Core QuestionnaireResponse PRAPARE Example"}]},"request":{"method":"PUT","url":"Observation/202205uscore-observation-example-17"}},{"fullUrl":"http://hapi.fhir.org/baseR4/Observation/202205uscore-observation-example-18","resource":{"resourceType":"Observation","id":"202205uscore-observation-example-18","meta":{"extension":[{"url":"http://hl7.org/fhir/StructureDefinition/instance-name","valueString":"Temperature Example"},{"url":"http://hl7.org/fhir/StructureDefinition/instance-description","valueMarkdown":"This is a temperature example for the *Vitalsigns Profile*."}],"profile":["http://hl7.org/fhir/us/core/StructureDefinition/us-core-body-temperature"],"tag":[{"code":"202201uscore"}]},"status":"final","category":[{"coding":[{"system":"http://terminology.hl7.org/CodeSystem/observation-category","code":"vital-signs","display":"Vital Signs"}],"text":"Vital Signs"}],"code":{"coding":[{"system":"http://loinc.org","code":"8310-5","display":"Body temperature"}],"text":"temperature"},"subject":{"reference":"Patient/202205uscore-patient-example-1","display":"Amy Shaw"},"encounter":{"display":"GP Visit"},"effectiveDateTime":"1999-07-02","valueQuantity":{"value":36.55556,"unit":"Cel","system":"http://unitsofmeasure.org","code":"Cel"}},"request":{"method":"PUT","url":"Observation/202205uscore-observation-example-18"}},{"fullUrl":"http://hapi.fhir.org/baseR4/Observation/202205uscore-observation-example-19","resource":{"resourceType":"Observation","id":"202205uscore-observation-example-19","meta":{"extension":[{"url":"http://hl7.org/fhir/StructureDefinition/instance-name","valueString":"Xray Chest Findings Example"},{"url":"http://hl7.org/fhir/StructureDefinition/instance-description","valueMarkdown":"This example of a US Core Observation Imaging Result Profile illustrates its use to capture information about a patient's radiology study findings."}],"profile":["http://hl7.org/fhir/us/core/StructureDefinition/us-core-observation-imaging"],"tag":[{"code":"202201uscore"}]},"status":"final","category":[{"coding":[{"system":"http://terminology.hl7.org/CodeSystem/observation-category","code":"imaging","display":"Imaging"}],"text":"Imaging"}],"code":{"coding":[{"system":"http://loinc.org","code":"18782-3","display":"Radiology Study observation (narrative)"}],"text":"Findings"},"subject":{"reference":"Patient/202205uscore-patient-example-1","display":"Amy Shaw"},"encounter":{"display":"ER Visit"},"effectiveDateTime":"2019-02-03T19:43:30+00:00","valueString":"LINES AND TUBES: None.\\n LUNGS AND PLEURA:\\n Clear lungs. Normal pulmonary vascularity.\\n No pleural effusion.\\n No pneumothorax.\\n HEART, MEDIASTINUM AND HILA:\\n Heart is normal in size.\\n Normal mediastinal and hilar contour.\\n BONES AND SOFT TISSUES:\\n No acute abnormality.\\n"},"request":{"method":"PUT","url":"Observation/202205uscore-observation-example-19"}},{"fullUrl":"http://hapi.fhir.org/baseR4/Observation/202205uscore-observation-example-20","resource":{"resourceType":"Observation","id":"202205uscore-observation-example-20","meta":{"extension":[{"url":"http://hl7.org/fhir/StructureDefinition/instance-name","valueString":"Ahc-Hrsn Item Example 68517-2"},{"url":"http://hl7.org/fhir/StructureDefinition/instance-description","valueMarkdown":"This is a Ahc-Hrsn Item Example 68517-2 (How many times in the past 12 months have you had 5 or more drinks in a day (males) or 4 or more drinks in a day (females)?) for the *US Core Screening Response Observation Profile*"}],"profile":["http://hl7.org/fhir/us/core/StructureDefinition/us-core-observation-sdoh-assessment"],"tag":[{"code":"202201uscore"}]},"status":"final","category":[{"coding":[{"system":"http://hl7.org/fhir/us/core/CodeSystem/us-core-tags","code":"sdoh","display":"SDOH"}]},{"coding":[{"system":"http://terminology.hl7.org/CodeSystem/observation-category","code":"survey","display":"Survey"}]}],"code":{"coding":[{"system":"http://loinc.org","code":"68517-2","display":"How many times in the past year have you have X or more drinks in a day"}],"text":"How many times in the past 12 months have you had 5 or more drinks in a day (males) or 4 or more drinks in a day (females)?"},"subject":{"reference":"Patient/202205uscore-patient-example-1"},"effectiveDateTime":"2022-03-29T22:38:59.084000+00:00","performer":[{"reference":"Patient/202205uscore-patient-example-1"}],"valueCodeableConcept":{"coding":[{"system":"http://loinc.org","code":"LA6270-8","display":"Never"}],"text":"Never"},"derivedFrom":[{"reference":"QuestionnaireResponse/202205uscore-questionnaireresponse-example-3","display":"US Core QuestionnaireResponse AHC HRSN Screening-Example Example"}]},"request":{"method":"PUT","url":"Observation/202205uscore-observation-example-20"}},{"fullUrl":"http://hapi.fhir.org/baseR4/Observation/202205uscore-observation-example-21","resource":{"resourceType":"Observation","id":"202205uscore-observation-example-21","meta":{"extension":[{"url":"http://hl7.org/fhir/StructureDefinition/instance-name","valueString":"Observation SatO2 FiO2 Example"},{"url":"http://hl7.org/fhir/StructureDefinition/instance-description","valueMarkdown":"This is a observation satO2 fiO2 example for the *US Core Pulse Oximetry Profile* representing a spO2 value with a for a patient on 6 l/min of O2 suppplemental oxygen."}],"profile":["http://hl7.org/fhir/us/core/StructureDefinition/us-core-pulse-oximetry"],"tag":[{"code":"202201uscore"}]},"identifier":[{"system":"http://goodcare.org/observation/id","value":"o1223435-10"}],"status":"final","category":[{"coding":[{"system":"http://terminology.hl7.org/CodeSystem/observation-category","code":"vital-signs","display":"Vital Signs"}],"text":"Vital Signs"}],"code":{"coding":[{"system":"http://loinc.org","code":"2708-6","display":"Oxygen saturation in Arterial blood"},{"system":"http://loinc.org","code":"59408-5","display":"Oxygen saturation in Arterial blood by Pulse oximetry"},{"system":"urn:iso:std:iso:11073:10101","code":"150456","display":"MDC_PULS_OXIM_SAT_O2"}]},"subject":{"reference":"Patient/202205uscore-patient-example-1"},"effectiveDateTime":"2014-12-05T09:30:10+01:00","valueQuantity":{"value":95,"unit":"%","system":"http://unitsofmeasure.org","code":"%"},"interpretation":[{"coding":[{"system":"http://terminology.hl7.org/CodeSystem/v3-ObservationInterpretation","code":"N","display":"Normal"}],"text":"Normal (applies to non-numeric results)"}],"device":{"display":"Acme Pulse Oximeter 2000"},"referenceRange":[{"low":{"value":90,"unit":"%","system":"http://unitsofmeasure.org","code":"%"},"high":{"value":99,"unit":"%","system":"http://unitsofmeasure.org","code":"%"}}],"component":[{"code":{"coding":[{"system":"http://loinc.org","code":"3151-8","display":"Inhaled oxygen flow rate"}],"text":"Inhaled oxygen flow rate"},"valueQuantity":{"value":6,"unit":"liters/min","system":"http://unitsofmeasure.org","code":"L/min"}}]},"request":{"method":"PUT","url":"Observation/202205uscore-observation-example-21"}},{"fullUrl":"http://hapi.fhir.org/baseR4/Observation/202205uscore-observation-example-22","resource":{"resourceType":"Observation","id":"202205uscore-observation-example-22","meta":{"extension":[{"url":"http://hl7.org/fhir/StructureDefinition/instance-name","valueString":"Sexual Orientation Observation Example"},{"url":"http://hl7.org/fhir/StructureDefinition/instance-description","valueMarkdown":"This is an sexual orientation example for the *US Core Observation Sexual Orientation Profile*."}],"profile":["http://hl7.org/fhir/us/core/StructureDefinition/us-core-observation-sexual-orientation"],"tag":[{"code":"202201uscore"}]},"status":"final","category":[{"coding":[{"system":"http://terminology.hl7.org/CodeSystem/observation-category","code":"social-history","display":"Social History"}]}],"code":{"coding":[{"system":"http://loinc.org","code":"76690-7","display":"Sexual orientation"}],"text":"Sexual orientation"},"subject":{"reference":"Patient/202205uscore-patient-example-1"},"effectiveDateTime":"2021-11-11","valueCodeableConcept":{"coding":[{"system":"http://terminology.hl7.org/CodeSystem/v3-NullFlavor","code":"ASKU","display":"asked but unknown"}],"text":"asked but unknown"}},"request":{"method":"PUT","url":"Observation/202205uscore-observation-example-22"}},{"fullUrl":"http://hapi.fhir.org/baseR4/Observation/202205uscore-observation-example-23","resource":{"resourceType":"Observation","id":"202205uscore-observation-example-23","meta":{"extension":[{"url":"http://hl7.org/fhir/StructureDefinition/instance-name","valueString":"Serum Potassium Example"},{"url":"http://hl7.org/fhir/StructureDefinition/instance-description","valueMarkdown":"This is a serum potassium example for the *US Core Observation Lab Profile*."}],"versionId":"938","lastUpdated":"2016-03-09T15:29:57.376000+00:00","profile":["http://hl7.org/fhir/us/core/StructureDefinition/us-core-observation-lab"],"tag":[{"code":"202201uscore"}]},"status":"final","category":[{"coding":[{"system":"http://terminology.hl7.org/CodeSystem/observation-category","code":"laboratory","display":"Laboratory"}],"text":"Laboratory"}],"code":{"coding":[{"system":"http://loinc.org","code":"2823-3","display":"Potassium SerPl-sCnc"}],"text":"Potassium SerPl-sCnc"},"subject":{"reference":"Patient/202205uscore-patient-example-1","display":"Amy Shaw"},"effectiveDateTime":"2005-07-05","valueQuantity":{"value":5.4,"unit":"mmol/L","system":"http://unitsofmeasure.org"},"referenceRange":[{"low":{"value":3.5,"unit":"mmol/L","system":"http://unitsofmeasure.org","code":"mmol/L"},"high":{"value":5.5,"unit":"mmol/L","system":"http://unitsofmeasure.org","code":"mmol/L"},"type":{"coding":[{"system":"http://terminology.hl7.org/CodeSystem/referencerange-meaning","code":"normal","display":"Normal Range"}],"text":"Normal Range"}}]},"request":{"method":"PUT","url":"Observation/202205uscore-observation-example-23"}},{"fullUrl":"http://hapi.fhir.org/baseR4/Observation/202205uscore-observation-example-24","resource":{"resourceType":"Observation","id":"202205uscore-observation-example-24","meta":{"extension":[{"url":"http://hl7.org/fhir/StructureDefinition/instance-name","valueString":"Prapare Item Example 93028-9"},{"url":"http://hl7.org/fhir/StructureDefinition/instance-description","valueMarkdown":"This is a Prapare Item Example 93028-9 (In the past year, have you spent more than 2 nights in a row in a jail, prison, detention center, or juvenile correctional facility?) for the *US Core Screening Response Observation Profile*"}],"profile":["http://hl7.org/fhir/us/core/StructureDefinition/us-core-observation-sdoh-assessment"],"tag":[{"code":"202201uscore"}]},"status":"final","category":[{"coding":[{"system":"http://hl7.org/fhir/us/core/CodeSystem/us-core-tags","code":"sdoh","display":"SDOH"}]},{"coding":[{"system":"http://terminology.hl7.org/CodeSystem/observation-category","code":"survey","display":"Survey"}]}],"code":{"coding":[{"system":"http://loinc.org","code":"93028-9","display":"In the past year, have you spent more than 2 nights in a row in a jail, prison, detention center, or juvenile correctional facility?"}],"text":"In the past year, have you spent more than 2 nights in a row in a jail, prison, detention center, or juvenile correctional facility?"},"subject":{"reference":"Patient/202205uscore-patient-example-1"},"effectiveDateTime":"2022-03-28T18:30:40-07:00","performer":[{"reference":"Patient/202205uscore-patient-example-1"}],"valueCodeableConcept":{"coding":[{"system":"http://loinc.org","code":"LA32-8","display":"No"}],"text":"No"},"derivedFrom":[{"reference":"QuestionnaireResponse/202205uscore-questionnaireresponse-example-1","display":"US Core QuestionnaireResponse PRAPARE Example"}]},"request":{"method":"PUT","url":"Observation/202205uscore-observation-example-24"}},{"fullUrl":"http://hapi.fhir.org/baseR4/Observation/202205uscore-observation-example-25","resource":{"resourceType":"Observation","id":"202205uscore-observation-example-25","meta":{"extension":[{"url":"http://hl7.org/fhir/StructureDefinition/instance-name","valueString":"Prapare Multiselect-Item Example 93031-3-Answer1"},{"url":"http://hl7.org/fhir/StructureDefinition/instance-description","valueMarkdown":"This is a Prapare Multiselect-Item Example 93031-3-Answer1 (In the past year, have you or any family members you live with been unable to get any of the following when it was really needed?) for the *US Core Screening Response Observation Profile*"}],"profile":["http://hl7.org/fhir/us/core/StructureDefinition/us-core-observation-sdoh-assessment"],"tag":[{"code":"202201uscore"}]},"status":"final","category":[{"coding":[{"system":"http://hl7.org/fhir/us/core/CodeSystem/us-core-tags","code":"sdoh","display":"SDOH"}]},{"coding":[{"system":"http://terminology.hl7.org/CodeSystem/observation-category","code":"survey","display":"Survey"}]}],"code":{"coding":[{"system":"http://loinc.org","code":"93031-3","display":"In the past year, have you or any family members you live with been unable to get any of the following when it was really needed?"}],"text":"In the past year, have you or any family members you live with been unable to get any of the following when it was really needed?"},"subject":{"reference":"Patient/202205uscore-patient-example-1"},"effectiveDateTime":"2022-03-28T18:30:40-07:00","performer":[{"reference":"Patient/202205uscore-patient-example-1"}],"valueCodeableConcept":{"coding":[{"system":"http://loinc.org","code":"LA30127-7","display":"Child care"}],"text":"Child care"},"derivedFrom":[{"reference":"QuestionnaireResponse/202205uscore-questionnaireresponse-example-1","display":"US Core QuestionnaireResponse PRAPARE Example"}]},"request":{"method":"PUT","url":"Observation/202205uscore-observation-example-25"}},{"fullUrl":"http://hapi.fhir.org/baseR4/Observation/202205uscore-observation-example-26","resource":{"resourceType":"Observation","id":"202205uscore-observation-example-26","meta":{"extension":[{"url":"http://hl7.org/fhir/StructureDefinition/instance-name","valueString":"Some Day Smoker Example"},{"url":"http://hl7.org/fhir/StructureDefinition/instance-description","valueMarkdown":"This is a some day smoker example for the *US Core Smokingstatus Profile*."}],"profile":["http://hl7.org/fhir/us/core/StructureDefinition/us-core-smokingstatus"],"tag":[{"code":"202201uscore"}]},"status":"final","category":[{"coding":[{"system":"http://terminology.hl7.org/CodeSystem/observation-category","code":"social-history","display":"Social History"}],"text":"Social History"}],"code":{"coding":[{"system":"http://loinc.org","code":"72166-2","display":"Tobacco smoking status"}],"text":"Tobacco smoking status"},"subject":{"reference":"Patient/202205uscore-patient-example-1","display":"Amy Shaw"},"effectiveDateTime":"2016-03-18T05:27:04+00:00","valueCodeableConcept":{"coding":[{"system":"http://snomed.info/sct","code":"428041000124106"}],"text":"Current some day smoker"}},"request":{"method":"PUT","url":"Observation/202205uscore-observation-example-26"}},{"fullUrl":"http://hapi.fhir.org/baseR4/Observation/202205uscore-observation-example-27","resource":{"resourceType":"Observation","id":"202205uscore-observation-example-27","meta":{"extension":[{"url":"http://hl7.org/fhir/StructureDefinition/instance-name","valueString":"10 minute Apgar Reflex Irritability Example"},{"url":"http://hl7.org/fhir/StructureDefinition/instance-description","valueMarkdown":"This example of a US Core Survey Observation Profile illustrates its use to directly capture individual surveys assessment items as an observations. It is not derived from a FHIR QuestionnaireResponse.."}],"profile":["http://hl7.org/fhir/us/core/StructureDefinition/us-core-observation-survey"],"tag":[{"code":"202201uscore"}]},"status":"final","category":[{"coding":[{"system":"http://terminology.hl7.org/CodeSystem/observation-category","code":"survey","display":"Survey"}],"text":"Survey"}],"code":{"coding":[{"system":"http://loinc.org","code":"32404-6","display":"10 minute Apgar Reflex Irritability"}],"text":"Apgar response to stimulus score"},"subject":{"reference":"Patient/202205uscore-patient-example-2"},"effectiveDateTime":"2016-05-18","performer":[{"reference":"Practitioner/202205uscore-practitioner-example-1","display":"Ronald Bone"}],"valueCodeableConcept":{"coding":[{"extension":[{"url":"http://hl7.org/fhir/StructureDefinition/ordinalValue","valueDecimal":2}],"system":"http://loinc.org","code":"LA6721-0","display":"Grimace and pulling away, cough, or sneeze during suctioning"}],"text":"2. Grimace and pulling away, cough, or sneeze during suctioning"}},"request":{"method":"PUT","url":"Observation/202205uscore-observation-example-27"}},{"fullUrl":"http://hapi.fhir.org/baseR4/Observation/202205uscore-observation-example-28","resource":{"resourceType":"Observation","id":"202205uscore-observation-example-28","meta":{"extension":[{"url":"http://hl7.org/fhir/StructureDefinition/instance-name","valueString":"Serum Sodium Example"},{"url":"http://hl7.org/fhir/StructureDefinition/instance-description","valueMarkdown":"This is a serum sodium example for the *US Core Observation Lab Profile*."}],"versionId":"914","lastUpdated":"2016-03-09T15:29:57.277000+00:00","profile":["http://hl7.org/fhir/us/core/StructureDefinition/us-core-observation-lab"],"tag":[{"code":"202201uscore"}]},"status":"final","category":[{"coding":[{"system":"http://terminology.hl7.org/CodeSystem/observation-category","code":"laboratory","display":"Laboratory"}],"text":"Laboratory"}],"code":{"coding":[{"system":"http://loinc.org","code":"2951-2","display":"Sodium SerPl-sCnc"}],"text":"Sodium SerPl-sCnc"},"subject":{"reference":"Patient/202205uscore-patient-example-1","display":"Amy Shaw"},"effectiveDateTime":"2005-07-05","valueQuantity":{"value":137.0,"unit":"mmol/L","system":"http://unitsofmeasure.org"},"referenceRange":[{"low":{"value":135.0,"unit":"mmol/L","system":"http://unitsofmeasure.org","code":"mmol/L"},"high":{"value":145.0,"unit":"mmol/L","system":"http://unitsofmeasure.org","code":"mmol/L"},"type":{"coding":[{"system":"http://terminology.hl7.org/CodeSystem/referencerange-meaning","code":"normal","display":"Normal Range"}],"text":"Normal Range"}}]},"request":{"method":"PUT","url":"Observation/202205uscore-observation-example-28"}},{"fullUrl":"http://hapi.fhir.org/baseR4/Observation/202205uscore-observation-example-29","resource":{"resourceType":"Observation","id":"202205uscore-observation-example-29","meta":{"extension":[{"url":"http://hl7.org/fhir/StructureDefinition/instance-name","valueString":"10 Minute Apgar Score Panel Example"},{"url":"http://hl7.org/fhir/StructureDefinition/instance-description","valueMarkdown":"This example of a US Core Survey Observation Profile illustrates its use to directly capture surveys assessments as a panel of observations. It is not derived from a FHIR QuestionnaireResponse."}],"profile":["http://hl7.org/fhir/us/core/StructureDefinition/us-core-observation-survey"],"tag":[{"code":"202201uscore"}]},"status":"final","category":[{"coding":[{"system":"http://terminology.hl7.org/CodeSystem/observation-category","code":"survey","display":"Survey"}],"text":"Survey"}],"code":{"coding":[{"system":"http://loinc.org","code":"9271-8","display":"10 minute Apgar Score"},{"system":"http://snomed.info/sct","code":"169922007","display":"Apgar at 10 minutes"}],"text":"10 minute Apgar Score"},"subject":{"reference":"Patient/202205uscore-patient-example-2"},"effectiveDateTime":"2016-05-18T22:33:22+00:00","performer":[{"reference":"Practitioner/202205uscore-practitioner-example-1","display":"Ronald Bone"}],"hasMember":[{"reference":"Observation/202205uscore-observation-example-62"},{"reference":"Observation/202205uscore-observation-example-43"},{"reference":"Observation/202205uscore-observation-example-41"},{"reference":"Observation/202205uscore-observation-example-27"},{"reference":"Observation/202205uscore-observation-example-73"},{"reference":"Observation/202205uscore-observation-example-55"}]},"request":{"method":"PUT","url":"Observation/202205uscore-observation-example-29"}},{"fullUrl":"http://hapi.fhir.org/baseR4/Observation/202205uscore-observation-example-30","resource":{"resourceType":"Observation","id":"202205uscore-observation-example-30","meta":{"extension":[{"url":"http://hl7.org/fhir/StructureDefinition/instance-name","valueString":"Serum Creatinine Example"},{"url":"http://hl7.org/fhir/StructureDefinition/instance-description","valueMarkdown":"This is a serum creatinine example for the *US Core Observation Lab Profile*."}],"versionId":"926","lastUpdated":"2016-03-09T15:29:57.327000+00:00","profile":["http://hl7.org/fhir/us/core/StructureDefinition/us-core-observation-lab"],"tag":[{"code":"202201uscore"}]},"status":"final","category":[{"coding":[{"system":"http://terminology.hl7.org/CodeSystem/observation-category","code":"laboratory","display":"Laboratory"}],"text":"Laboratory"}],"code":{"coding":[{"system":"http://loinc.org","code":"2160-0","display":"Creat SerPl-mCnc"}],"text":"Creat SerPl-mCnc"},"subject":{"reference":"Patient/202205uscore-patient-example-1","display":"Amy Shaw"},"effectiveDateTime":"2005-07-05","valueQuantity":{"value":1.0,"unit":"mg/dL","system":"http://unitsofmeasure.org"},"referenceRange":[{"low":{"value":0.2,"unit":"mg/dL","system":"http://unitsofmeasure.org","code":"mg/dL"},"high":{"value":0.6,"unit":"mg/dL","system":"http://unitsofmeasure.org","code":"mg/dL"},"type":{"coding":[{"system":"http://terminology.hl7.org/CodeSystem/referencerange-meaning","code":"normal","display":"Normal Range"}],"text":"Normal Range"}}]},"request":{"method":"PUT","url":"Observation/202205uscore-observation-example-30"}},{"fullUrl":"http://hapi.fhir.org/baseR4/Observation/202205uscore-observation-example-31","resource":{"resourceType":"Observation","id":"202205uscore-observation-example-31","meta":{"extension":[{"url":"http://hl7.org/fhir/StructureDefinition/instance-name","valueString":"Xray Chest Impression Example"},{"url":"http://hl7.org/fhir/StructureDefinition/instance-description","valueMarkdown":"This example of a US Core Observation Imaging Result Profile illustrates its use to capture information about a patient's radiology study impression."}],"profile":["http://hl7.org/fhir/us/core/StructureDefinition/us-core-observation-imaging"],"tag":[{"code":"202201uscore"}]},"status":"final","category":[{"coding":[{"system":"http://terminology.hl7.org/CodeSystem/observation-category","code":"imaging","display":"Imaging"}],"text":"Imaging"}],"code":{"coding":[{"system":"http://loinc.org","code":"19005-8","display":"Radiology Imaging study [Impression] (narrative)"}],"text":"Impression"},"subject":{"reference":"Patient/202205uscore-patient-example-1","display":"Amy Shaw"},"encounter":{"display":"ER Visit"},"effectiveDateTime":"2019-02-03T19:43:30+00:00","valueString":"No acute abnormality"},"request":{"method":"PUT","url":"Observation/202205uscore-observation-example-31"}},{"fullUrl":"http://hapi.fhir.org/baseR4/Observation/202205uscore-observation-example-32","resource":{"resourceType":"Observation","id":"202205uscore-observation-example-32","meta":{"extension":[{"url":"http://hl7.org/fhir/StructureDefinition/instance-name","valueString":"Prapare Item Example 93038-8"},{"url":"http://hl7.org/fhir/StructureDefinition/instance-description","valueMarkdown":"This is a Prapare Item Example 93038-8 (Stress is when someone feels tense, nervous, anxious or can't sleep at night because their mind is troubled. How stressed are you?) for the *US Core Screening Response Observation Profile*"}],"profile":["http://hl7.org/fhir/us/core/StructureDefinition/us-core-observation-sdoh-assessment"],"tag":[{"code":"202201uscore"}]},"status":"final","category":[{"coding":[{"system":"http://hl7.org/fhir/us/core/CodeSystem/us-core-tags","code":"sdoh","display":"SDOH"}]},{"coding":[{"system":"http://terminology.hl7.org/CodeSystem/observation-category","code":"survey","display":"Survey"}]}],"code":{"coding":[{"system":"http://loinc.org","code":"93038-8","display":"Stress level"}],"text":"Stress level"},"subject":{"reference":"Patient/202205uscore-patient-example-1"},"effectiveDateTime":"2022-03-28T18:30:40-07:00","performer":[{"reference":"Patient/202205uscore-patient-example-1"}],"valueCodeableConcept":{"coding":[{"system":"http://loinc.org","code":"LA13909-9","display":"Somewhat"}],"text":"Somewhat"},"derivedFrom":[{"reference":"QuestionnaireResponse/202205uscore-questionnaireresponse-example-1","display":"US Core QuestionnaireResponse PRAPARE Example"}]},"request":{"method":"PUT","url":"Observation/202205uscore-observation-example-32"}},{"fullUrl":"http://hapi.fhir.org/baseR4/Observation/202205uscore-observation-example-33","resource":{"resourceType":"Observation","id":"202205uscore-observation-example-33","meta":{"extension":[{"url":"http://hl7.org/fhir/StructureDefinition/instance-name","valueString":"Oxygen Saturation Example"},{"url":"http://hl7.org/fhir/StructureDefinition/instance-description","valueMarkdown":"This is a typical oxygen saturation example for the *US Core Pulse Oximetry Profile* on room air where no oxygen concentration is recorded."}],"profile":["http://hl7.org/fhir/us/core/StructureDefinition/us-core-pulse-oximetry"],"tag":[{"code":"202201uscore"}]},"status":"final","category":[{"coding":[{"system":"http://terminology.hl7.org/CodeSystem/observation-category","code":"vital-signs","display":"Vital Signs"}],"text":"Vital Signs"}],"code":{"coding":[{"system":"http://loinc.org","code":"2708-6","display":"Oxygen saturation in Arterial blood"},{"system":"http://loinc.org","code":"59408-5","display":"Oxygen saturation in Arterial blood by Pulse oximetry"}],"text":"oxygen_saturation"},"subject":{"reference":"Patient/202205uscore-patient-example-1","display":"Amy Shaw"},"encounter":{"display":"GP Visit"},"effectiveDateTime":"1999-07-02","valueQuantity":{"value":99.0,"unit":"%O2","system":"http://unitsofmeasure.org","code":"%"}},"request":{"method":"PUT","url":"Observation/202205uscore-observation-example-33"}},{"fullUrl":"http://hapi.fhir.org/baseR4/Observation/202205uscore-observation-example-34","resource":{"resourceType":"Observation","id":"202205uscore-observation-example-34","meta":{"extension":[{"url":"http://hl7.org/fhir/StructureDefinition/instance-name","valueString":"Prapare Item Example 93026-3"},{"url":"http://hl7.org/fhir/StructureDefinition/instance-description","valueMarkdown":"This is a Prapare Item Example 93026-3 (Do you feel physically and emotionally safe where you currently live?) for the *US Core Screening Response Observation Profile*"}],"profile":["http://hl7.org/fhir/us/core/StructureDefinition/us-core-observation-sdoh-assessment"],"tag":[{"code":"202201uscore"}]},"status":"final","category":[{"coding":[{"system":"http://hl7.org/fhir/us/core/CodeSystem/us-core-tags","code":"sdoh","display":"SDOH"}]},{"coding":[{"system":"http://terminology.hl7.org/CodeSystem/observation-category","code":"survey","display":"Survey"}]}],"code":{"coding":[{"system":"http://loinc.org","code":"93026-3","display":"Do you feel physically and emotionally safe where you currently live?"}],"text":"Do you feel physically and emotionally safe where you currently live?"},"subject":{"reference":"Patient/202205uscore-patient-example-1"},"effectiveDateTime":"2022-03-28T18:30:40-07:00","performer":[{"reference":"Patient/202205uscore-patient-example-1"}],"valueCodeableConcept":{"coding":[{"system":"http://loinc.org","code":"LA32-8","display":"No"}],"text":"No"},"derivedFrom":[{"reference":"QuestionnaireResponse/202205uscore-questionnaireresponse-example-1","display":"US Core QuestionnaireResponse PRAPARE Example"}]},"request":{"method":"PUT","url":"Observation/202205uscore-observation-example-34"}},{"fullUrl":"http://hapi.fhir.org/baseR4/Observation/202205uscore-observation-example-35","resource":{"resourceType":"Observation","id":"202205uscore-observation-example-35","meta":{"extension":[{"url":"http://hl7.org/fhir/StructureDefinition/instance-name","valueString":"Pediatric Wt Example"},{"url":"http://hl7.org/fhir/StructureDefinition/instance-description","valueMarkdown":"This is a pediatric wt example for the *Pediatric Weight For Height Profile*."}],"profile":["http://hl7.org/fhir/us/core/StructureDefinition/pediatric-weight-for-height"],"tag":[{"code":"202201uscore"}]},"status":"final","category":[{"coding":[{"system":"http://terminology.hl7.org/CodeSystem/observation-category","code":"vital-signs","display":"Vital Signs"}],"text":"Vital Signs"}],"code":{"coding":[{"system":"http://loinc.org","code":"77606-2","display":"Weight-for-length Per age and sex"}],"text":"BMI"},"subject":{"reference":"Patient/202205uscore-patient-example-2","display":"Infant Example"},"encounter":{"display":"GP Visit"},"effectiveDateTime":"2020-07-02","valueQuantity":{"value":65,"unit":"%","system":"http://unitsofmeasure.org","code":"%"},"note":[{"text":"WHO Males, 0-2 years Chart"}]},"request":{"method":"PUT","url":"Observation/202205uscore-observation-example-35"}},{"fullUrl":"http://hapi.fhir.org/baseR4/Observation/202205uscore-observation-example-36","resource":{"resourceType":"Observation","id":"202205uscore-observation-example-36","meta":{"extension":[{"url":"http://hl7.org/fhir/StructureDefinition/instance-name","valueString":"Jugular vein distension Example"},{"url":"http://hl7.org/fhir/StructureDefinition/instance-description","valueMarkdown":"This is a Jugular vein distension Example for the *Clinical Test Result Observation Profile*."}],"profile":["http://hl7.org/fhir/us/core/StructureDefinition/us-core-observation-clinical-test"],"tag":[{"code":"202201uscore"}]},"status":"final","category":[{"coding":[{"system":"http://hl7.org/fhir/us/core/CodeSystem/us-core-observation-category","code":"clinical-test","display":"Clinical Test"}],"text":"Clinical Test"}],"code":{"coding":[{"system":"http://loinc.org","code":"69428-1","display":"Jugular vein distension"}],"text":"Jugular vein distension"},"subject":{"reference":"Patient/202205uscore-patient-example-1","display":"Amy Shaw"},"encounter":{"display":"Cardiology Consult"},"effectiveDateTime":"2021-11-10T16:48:57.246958-08:00","valueCodeableConcept":{"coding":[{"system":"http://loinc.org","code":"LA9634-2","display":"Absent"}],"text":"Absent"}},"request":{"method":"PUT","url":"Observation/202205uscore-observation-example-36"}},{"fullUrl":"http://hapi.fhir.org/baseR4/Observation/202205uscore-observation-example-37","resource":{"resourceType":"Observation","id":"202205uscore-observation-example-37","meta":{"extension":[{"url":"http://hl7.org/fhir/StructureDefinition/instance-name","valueString":"DXA Hip-L ArMass BMD Example"},{"url":"http://hl7.org/fhir/StructureDefinition/instance-description","valueMarkdown":"This is a DXA Hip-L ArMass BMD Example for the *Clinical Test Result Observation Profile*."}],"profile":["http://hl7.org/fhir/us/core/StructureDefinition/us-core-observation-clinical-test"],"tag":[{"code":"202201uscore"}]},"status":"final","category":[{"coding":[{"system":"http://hl7.org/fhir/us/core/CodeSystem/us-core-observation-category","code":"clinical-test","display":"Clinical Test"}],"text":"Clinical Test"}],"code":{"coding":[{"system":"http://loinc.org","code":"46278-8","display":"DXA Hip-L ArMass BMD"}],"text":"DXA Hip-L ArMass BMD"},"subject":{"reference":"Patient/202205uscore-patient-example-1","display":"Amy Shaw"},"encounter":{"display":"Bone Scan"},"effectiveDateTime":"2021-11-10T19:14:41.088720-08:00","valueQuantity":{"value":0.734,"unit":"g/cm2","system":"http://unitsofmeasure.org","code":"g/cm2"}},"request":{"method":"PUT","url":"Observation/202205uscore-observation-example-37"}},{"fullUrl":"http://hapi.fhir.org/baseR4/Observation/202205uscore-observation-example-38","resource":{"resourceType":"Observation","id":"202205uscore-observation-example-38","meta":{"extension":[{"url":"http://hl7.org/fhir/StructureDefinition/instance-name","valueString":"OFC Percentile Example"},{"url":"http://hl7.org/fhir/StructureDefinition/instance-description","valueMarkdown":"This is a OFC percentile example for the *Head Occipital Frontal Circumference Percentile Profile*."}],"profile":["http://hl7.org/fhir/us/core/StructureDefinition/head-occipital-frontal-circumference-percentile"],"tag":[{"code":"202201uscore"}]},"status":"final","category":[{"coding":[{"system":"http://terminology.hl7.org/CodeSystem/observation-category","code":"vital-signs","display":"Vital Signs"}],"text":"Vital Signs"}],"code":{"coding":[{"system":"http://loinc.org","code":"8289-1","display":"Head Occipital-frontal circumference Percentile"}],"text":"Head Occipital-frontal circumference Percentile"},"subject":{"reference":"Patient/202205uscore-patient-example-2","display":"Infant Example"},"effectiveDateTime":"2020-07-01","valueQuantity":{"value":82,"unit":"%","system":"http://unitsofmeasure.org","code":"%"},"note":[{"text":"WHO Males, 0-2 years Chart"}]},"request":{"method":"PUT","url":"Observation/202205uscore-observation-example-38"}},{"fullUrl":"http://hapi.fhir.org/baseR4/Observation/202205uscore-observation-example-39","resource":{"resourceType":"Observation","id":"202205uscore-observation-example-39","meta":{"extension":[{"url":"http://hl7.org/fhir/StructureDefinition/instance-name","valueString":"Prapare Multiselect-Item Example 32624-9-Answer1"},{"url":"http://hl7.org/fhir/StructureDefinition/instance-description","valueMarkdown":"This is a Prapare Multiselect-Item Example 32624-9-Answer1 (Race) for the *US Core Screening Response Observation Profile*"}],"profile":["http://hl7.org/fhir/us/core/StructureDefinition/us-core-observation-sdoh-assessment"],"tag":[{"code":"202201uscore"}]},"status":"final","category":[{"coding":[{"system":"http://hl7.org/fhir/us/core/CodeSystem/us-core-tags","code":"sdoh","display":"SDOH"}]},{"coding":[{"system":"http://terminology.hl7.org/CodeSystem/observation-category","code":"survey","display":"Survey"}]}],"code":{"coding":[{"system":"http://loinc.org","code":"32624-9","display":"Race"}],"text":"Race"},"subject":{"reference":"Patient/202205uscore-patient-example-1"},"effectiveDateTime":"2022-03-28T18:30:40-07:00","performer":[{"reference":"Patient/202205uscore-patient-example-1"}],"valueCodeableConcept":{"coding":[{"system":"http://loinc.org","code":"LA30187-1","display":"Pacific Islander"}],"text":"Pacific Islander"},"derivedFrom":[{"reference":"QuestionnaireResponse/202205uscore-questionnaireresponse-example-1","display":"US Core QuestionnaireResponse PRAPARE Example"}]},"request":{"method":"PUT","url":"Observation/202205uscore-observation-example-39"}},{"fullUrl":"http://hapi.fhir.org/baseR4/Observation/202205uscore-observation-example-40","resource":{"resourceType":"Observation","id":"202205uscore-observation-example-40","meta":{"extension":[{"url":"http://hl7.org/fhir/StructureDefinition/instance-name","valueString":"Prapare Item Example 56799-0"},{"url":"http://hl7.org/fhir/StructureDefinition/instance-description","valueMarkdown":"This is a Prapare Item Example 56799-0 (Address) for the *US Core Screening Response Observation Profile*"}],"profile":["http://hl7.org/fhir/us/core/StructureDefinition/us-core-observation-sdoh-assessment"],"tag":[{"code":"202201uscore"}]},"status":"final","category":[{"coding":[{"system":"http://hl7.org/fhir/us/core/CodeSystem/us-core-tags","code":"sdoh","display":"SDOH"}]},{"coding":[{"system":"http://terminology.hl7.org/CodeSystem/observation-category","code":"survey","display":"Survey"}]}],"code":{"coding":[{"system":"http://loinc.org","code":"56799-0","display":"Address"}],"text":"Address"},"subject":{"reference":"Patient/202205uscore-patient-example-1"},"effectiveDateTime":"2022-03-28T18:30:40-07:00","performer":[{"reference":"Patient/202205uscore-patient-example-1"}],"valueString":"Broadway","derivedFrom":[{"reference":"QuestionnaireResponse/202205uscore-questionnaireresponse-example-1","display":"US Core QuestionnaireResponse PRAPARE Example"}]},"request":{"method":"PUT","url":"Observation/202205uscore-observation-example-40"}},{"fullUrl":"http://hapi.fhir.org/baseR4/Observation/202205uscore-observation-example-41","resource":{"resourceType":"Observation","id":"202205uscore-observation-example-41","meta":{"extension":[{"url":"http://hl7.org/fhir/StructureDefinition/instance-name","valueString":"10 minute Apgar Muscle Tone Example"},{"url":"http://hl7.org/fhir/StructureDefinition/instance-description","valueMarkdown":"This example of a US Core Survey Observation Profile illustrates its use to directly capture individual surveys assessment items as an observations. It is not derived from a FHIR QuestionnaireResponse."}],"profile":["http://hl7.org/fhir/us/core/StructureDefinition/us-core-observation-survey"],"tag":[{"code":"202201uscore"}]},"status":"final","category":[{"coding":[{"system":"http://terminology.hl7.org/CodeSystem/observation-category","code":"survey","display":"Survey"}],"text":"Survey"}],"code":{"coding":[{"system":"http://loinc.org","code":"32403-8","display":"10 minute Apgar Muscle Tone"}],"text":"Apgar muscle tone score"},"subject":{"reference":"Patient/202205uscore-patient-example-2"},"effectiveDateTime":"2016-05-18T22:33:22+00:00","performer":[{"reference":"Practitioner/202205uscore-practitioner-example-1","display":"Ronald Bone"}],"valueCodeableConcept":{"coding":[{"extension":[{"url":"http://hl7.org/fhir/StructureDefinition/ordinalValue","valueDecimal":2}],"system":"http://loinc.org","code":"LA6715-2","display":"Active motion"}],"text":"2. Active motion"}},"request":{"method":"PUT","url":"Observation/202205uscore-observation-example-41"}},{"fullUrl":"http://hapi.fhir.org/baseR4/Observation/202205uscore-observation-example-42","resource":{"resourceType":"Observation","id":"202205uscore-observation-example-42","meta":{"extension":[{"url":"http://hl7.org/fhir/StructureDefinition/instance-name","valueString":"Length Example"},{"url":"http://hl7.org/fhir/StructureDefinition/instance-description","valueMarkdown":"This is a length example for the *Vitalsigns Profile* which shows how body length (typically used for infants) is represented using 8306-3 -*Body height - lying* as an additional observation code."}],"profile":["http://hl7.org/fhir/us/core/StructureDefinition/us-core-body-height"],"tag":[{"code":"202201uscore"}]},"status":"final","category":[{"coding":[{"system":"http://terminology.hl7.org/CodeSystem/observation-category","code":"vital-signs","display":"Vital Signs"}],"text":"Vital Signs"}],"code":{"coding":[{"system":"http://loinc.org","code":"8306-3","display":"Body height --lying"},{"system":"http://loinc.org","code":"8302-2","display":"Body height"}],"text":"length"},"subject":{"reference":"Patient/202205uscore-patient-example-1","display":"Amy Shaw"},"encounter":{"display":"GP Visit"},"effectiveDateTime":"1999-07-02","valueQuantity":{"value":25,"unit":"cm","system":"http://unitsofmeasure.org","code":"cm"}},"request":{"method":"PUT","url":"Observation/202205uscore-observation-example-42"}},{"fullUrl":"http://hapi.fhir.org/baseR4/Observation/202205uscore-observation-example-43","resource":{"resourceType":"Observation","id":"202205uscore-observation-example-43","meta":{"extension":[{"url":"http://hl7.org/fhir/StructureDefinition/instance-name","valueString":"10 minute Apgar Respiratory effort Example"},{"url":"http://hl7.org/fhir/StructureDefinition/instance-description","valueMarkdown":"This example of a US Core Survey Observation Profile illustrates its use to directly capture individual surveys assessment items as an observations. It is not derived from a FHIR QuestionnaireResponse."}],"profile":["http://hl7.org/fhir/us/core/StructureDefinition/us-core-observation-survey"],"tag":[{"code":"202201uscore"}]},"status":"final","category":[{"coding":[{"system":"http://terminology.hl7.org/CodeSystem/observation-category","code":"survey","display":"Survey"}],"text":"Survey"}],"code":{"coding":[{"system":"http://loinc.org","code":"32405-3","display":"10 minute Apgar Respiratory effort"}],"text":"Apgar respiratory effort score"},"subject":{"reference":"Patient/202205uscore-patient-example-2"},"effectiveDateTime":"2016-05-18T22:33:22+00:00","performer":[{"reference":"Practitioner/202205uscore-practitioner-example-1","display":"Ronald Bone"}],"valueCodeableConcept":{"coding":[{"extension":[{"url":"http://hl7.org/fhir/StructureDefinition/ordinalValue","valueDecimal":2}],"system":"http://loinc.org","code":"LA6727-7","display":"Good, strong cry; normal rate and effort of breathing"}],"text":"2. Good, strong cry; normal rate and effort of breathing"}},"request":{"method":"PUT","url":"Observation/202205uscore-observation-example-43"}},{"fullUrl":"http://hapi.fhir.org/baseR4/Observation/202205uscore-observation-example-44","resource":{"resourceType":"Observation","id":"202205uscore-observation-example-44","meta":{"extension":[{"url":"http://hl7.org/fhir/StructureDefinition/instance-name","valueString":"Ahc-Hrsn Item Example 93159-2"},{"url":"http://hl7.org/fhir/StructureDefinition/instance-description","valueMarkdown":"This is a Ahc-Hrsn Item Example 93159-2 (How often do you feel lonely or isolated from those around you?) for the *US Core Screening Response Observation Profile*"}],"profile":["http://hl7.org/fhir/us/core/StructureDefinition/us-core-observation-sdoh-assessment"],"tag":[{"code":"202201uscore"}]},"status":"final","category":[{"coding":[{"system":"http://hl7.org/fhir/us/core/CodeSystem/us-core-tags","code":"sdoh","display":"SDOH"}]},{"coding":[{"system":"http://terminology.hl7.org/CodeSystem/observation-category","code":"survey","display":"Survey"}]}],"code":{"coding":[{"system":"http://loinc.org","code":"93159-2","display":"How often do you feel lonely or isolated from those around you [CMS Assessment]"}],"text":"How often do you feel lonely or isolated from those around you?"},"subject":{"reference":"Patient/202205uscore-patient-example-1"},"effectiveDateTime":"2022-03-29T22:38:59.084000+00:00","performer":[{"reference":"Patient/202205uscore-patient-example-1"}],"valueCodeableConcept":{"coding":[{"system":"http://loinc.org","code":"LA6270-8","display":"Never"}],"text":"Never"},"derivedFrom":[{"reference":"QuestionnaireResponse/202205uscore-questionnaireresponse-example-3","display":"US Core QuestionnaireResponse AHC HRSN Screening-Example Example"}]},"request":{"method":"PUT","url":"Observation/202205uscore-observation-example-44"}},{"fullUrl":"http://hapi.fhir.org/baseR4/Observation/202205uscore-observation-example-45","resource":{"resourceType":"Observation","id":"202205uscore-observation-example-45","meta":{"extension":[{"url":"http://hl7.org/fhir/StructureDefinition/instance-name","valueString":"Urobilinogen Example"},{"url":"http://hl7.org/fhir/StructureDefinition/instance-description","valueMarkdown":"This is a urobilinogen example for the *US Core Observation Lab Profile*."}],"versionId":"206612","lastUpdated":"2016-04-18T04:20:46.618000+00:00","profile":["http://hl7.org/fhir/us/core/StructureDefinition/us-core-observation-lab"],"tag":[{"code":"202201uscore"}]},"status":"final","category":[{"coding":[{"system":"http://terminology.hl7.org/CodeSystem/observation-category","code":"laboratory","display":"Laboratory"}],"text":"Laboratory"}],"code":{"coding":[{"system":"http://loinc.org","code":"20405-7","display":"Urobilinogen [Mass/volume] in Urine by Test strip"}],"text":"UROBILINOGEN"},"subject":{"reference":"Patient/202205uscore-patient-example-1","display":"Amy Shaw"},"effectiveDateTime":"2005-07-05","valueQuantity":{"value":0.3,"unit":"mg/dL","system":"http://unitsofmeasure.org","code":"mg/dL"},"referenceRange":[{"low":{"value":0.1,"unit":"mg/dL","system":"http://unitsofmeasure.org","code":"mg/dL"},"high":{"value":1.0,"unit":"mg/dL","system":"http://unitsofmeasure.org","code":"mg/dL"}}]},"request":{"method":"PUT","url":"Observation/202205uscore-observation-example-45"}},{"fullUrl":"http://hapi.fhir.org/baseR4/Observation/202205uscore-observation-example-46","resource":{"resourceType":"Observation","id":"202205uscore-observation-example-46","meta":{"extension":[{"url":"http://hl7.org/fhir/StructureDefinition/instance-name","valueString":"Prapare Multiselect-Item Example 32624-9-Answer0"},{"url":"http://hl7.org/fhir/StructureDefinition/instance-description","valueMarkdown":"This is a Prapare Multiselect-Item Example 32624-9-Answer0 (Race) for the *US Core Screening Response Observation Profile*"}],"profile":["http://hl7.org/fhir/us/core/StructureDefinition/us-core-observation-sdoh-assessment"],"tag":[{"code":"202201uscore"}]},"status":"final","category":[{"coding":[{"system":"http://hl7.org/fhir/us/core/CodeSystem/us-core-tags","code":"sdoh","display":"SDOH"}]},{"coding":[{"system":"http://terminology.hl7.org/CodeSystem/observation-category","code":"survey","display":"Survey"}]}],"code":{"coding":[{"system":"http://loinc.org","code":"32624-9","display":"Race"}],"text":"Race"},"subject":{"reference":"Patient/202205uscore-patient-example-1"},"effectiveDateTime":"2022-03-28T18:30:40-07:00","performer":[{"reference":"Patient/202205uscore-patient-example-1"}],"valueCodeableConcept":{"coding":[{"system":"http://loinc.org","code":"LA4457-3","display":"White"}],"text":"White"},"derivedFrom":[{"reference":"QuestionnaireResponse/202205uscore-questionnaireresponse-example-1","display":"US Core QuestionnaireResponse PRAPARE Example"}]},"request":{"method":"PUT","url":"Observation/202205uscore-observation-example-46"}},{"fullUrl":"http://hapi.fhir.org/baseR4/Observation/202205uscore-observation-example-47","resource":{"resourceType":"Observation","id":"202205uscore-observation-example-47","meta":{"extension":[{"url":"http://hl7.org/fhir/StructureDefinition/instance-name","valueString":"Serum Calcium Example"},{"url":"http://hl7.org/fhir/StructureDefinition/instance-description","valueMarkdown":"This is a serum calcium example for the *US Core Observation Lab Profile*."}],"versionId":"902","lastUpdated":"2016-03-09T15:29:57.227000+00:00","profile":["http://hl7.org/fhir/us/core/StructureDefinition/us-core-observation-lab"],"tag":[{"code":"202201uscore"}]},"status":"final","category":[{"coding":[{"system":"http://terminology.hl7.org/CodeSystem/observation-category","code":"laboratory","display":"Laboratory"}],"text":"Laboratory"}],"code":{"coding":[{"system":"http://loinc.org","code":"17861-6","display":"Calcium SerPl-mCnc"}],"text":"Calcium SerPl-mCnc"},"subject":{"reference":"Patient/202205uscore-patient-example-1","display":"Amy Shaw"},"effectiveDateTime":"2005-07-05","valueQuantity":{"value":7.7,"unit":"mg/dL","system":"http://unitsofmeasure.org"},"referenceRange":[{"low":{"value":8.5,"unit":"mg/dL","system":"http://unitsofmeasure.org","code":"mg/dL"},"high":{"value":10.5,"unit":"mg/dL","system":"http://unitsofmeasure.org","code":"mg/dL"},"type":{"coding":[{"system":"http://terminology.hl7.org/CodeSystem/referencerange-meaning","code":"normal","display":"Normal Range"}],"text":"Normal Range"}}]},"request":{"method":"PUT","url":"Observation/202205uscore-observation-example-47"}},{"fullUrl":"http://hapi.fhir.org/baseR4/Observation/202205uscore-observation-example-48","resource":{"resourceType":"Observation","id":"202205uscore-observation-example-48","meta":{"extension":[{"url":"http://hl7.org/fhir/StructureDefinition/instance-name","valueString":"Prapare Panel Example 93040-4"},{"url":"http://hl7.org/fhir/StructureDefinition/instance-description","valueMarkdown":"This is a Prapare Panel Example 93040-4 (Social and emotional health) for the *US Core Screening Response Observation Profile*"}],"profile":["http://hl7.org/fhir/us/core/StructureDefinition/us-core-observation-sdoh-assessment"],"tag":[{"code":"202201uscore"}]},"status":"final","category":[{"coding":[{"system":"http://hl7.org/fhir/us/core/CodeSystem/us-core-tags","code":"sdoh","display":"SDOH"}]},{"coding":[{"system":"http://terminology.hl7.org/CodeSystem/observation-category","code":"survey","display":"Survey"}]}],"code":{"coding":[{"system":"http://loinc.org","code":"93040-4","display":"Social and emotional health [PRAPARE]"}],"text":"Social and emotional health"},"subject":{"reference":"Patient/202205uscore-patient-example-1"},"effectiveDateTime":"2022-03-28T18:30:40-07:00","performer":[{"reference":"Patient/202205uscore-patient-example-1"}],"hasMember":[{"reference":"Observation/202205uscore-observation-example-49"},{"reference":"Observation/202205uscore-observation-example-32"}],"derivedFrom":[{"reference":"QuestionnaireResponse/202205uscore-questionnaireresponse-example-1","display":"US Core QuestionnaireResponse PRAPARE Example"}]},"request":{"method":"PUT","url":"Observation/202205uscore-observation-example-48"}},{"fullUrl":"http://hapi.fhir.org/baseR4/Observation/202205uscore-observation-example-49","resource":{"resourceType":"Observation","id":"202205uscore-observation-example-49","meta":{"extension":[{"url":"http://hl7.org/fhir/StructureDefinition/instance-name","valueString":"Prapare Item Example 93029-7"},{"url":"http://hl7.org/fhir/StructureDefinition/instance-description","valueMarkdown":"This is a Prapare Item Example 93029-7 (How often do you see or talk to people that you care about and feel close to (For example: talking to friends on the phone, visiting friends or family, going to church or club meetings)?) for the *US Core Screening Response Observation Profile*"}],"profile":["http://hl7.org/fhir/us/core/StructureDefinition/us-core-observation-sdoh-assessment"],"tag":[{"code":"202201uscore"}]},"status":"final","category":[{"coding":[{"system":"http://hl7.org/fhir/us/core/CodeSystem/us-core-tags","code":"sdoh","display":"SDOH"}]},{"coding":[{"system":"http://terminology.hl7.org/CodeSystem/observation-category","code":"survey","display":"Survey"}]}],"code":{"coding":[{"system":"http://loinc.org","code":"93029-7","display":"How often do you see or talk to people that you care about and feel close to (For example: talking to friends on the phone, visiting friends or family, going to church or club meetings)?"}],"text":"How often do you see or talk to people that you care about and feel close to (For example: talking to friends on the phone, visiting friends or family, going to church or club meetings)?"},"subject":{"reference":"Patient/202205uscore-patient-example-1"},"effectiveDateTime":"2022-03-28T18:30:40-07:00","performer":[{"reference":"Patient/202205uscore-patient-example-1"}],"valueCodeableConcept":{"coding":[{"system":"http://loinc.org","code":"LA30130-1","display":"1 or 2 times a week"}],"text":"1 or 2 times a week"},"derivedFrom":[{"reference":"QuestionnaireResponse/202205uscore-questionnaireresponse-example-1","display":"US Core QuestionnaireResponse PRAPARE Example"}]},"request":{"method":"PUT","url":"Observation/202205uscore-observation-example-49"}},{"fullUrl":"http://hapi.fhir.org/baseR4/Observation/202205uscore-observation-example-50","resource":{"resourceType":"Observation","id":"202205uscore-observation-example-50","meta":{"extension":[{"url":"http://hl7.org/fhir/StructureDefinition/instance-name","valueString":"Prapare Item Example 93030-5"},{"url":"http://hl7.org/fhir/StructureDefinition/instance-description","valueMarkdown":"This is a Prapare Item Example 93030-5 (Has lack of transportation kept you from medical appointments, meetings, work, or from getting things needed for daily living?) for the *US Core Screening Response Observation Profile*"}],"profile":["http://hl7.org/fhir/us/core/StructureDefinition/us-core-observation-sdoh-assessment"],"tag":[{"code":"202201uscore"}]},"status":"final","category":[{"coding":[{"system":"http://hl7.org/fhir/us/core/CodeSystem/us-core-tags","code":"sdoh","display":"SDOH"}]},{"coding":[{"system":"http://terminology.hl7.org/CodeSystem/observation-category","code":"survey","display":"Survey"}]}],"code":{"coding":[{"system":"http://loinc.org","code":"93030-5","display":"Has lack of transportation kept you from medical appointments, meetings, work, or from getting things needed for daily living"}],"text":"Has lack of transportation kept you from medical appointments, meetings, work, or from getting things needed for daily living?"},"subject":{"reference":"Patient/202205uscore-patient-example-1"},"effectiveDateTime":"2022-03-28T18:30:40-07:00","performer":[{"reference":"Patient/202205uscore-patient-example-1"}],"valueCodeableConcept":{"coding":[{"system":"http://loinc.org","code":"LA30134-3","display":"Yes, it has kept me from non-medical meetings, appointments, work, or from getting things that I need"}],"text":"Yes, it has kept me from non-medical meetings, appointments, work, or from getting things that I need"},"derivedFrom":[{"reference":"QuestionnaireResponse/202205uscore-questionnaireresponse-example-1","display":"US Core QuestionnaireResponse PRAPARE Example"}]},"request":{"method":"PUT","url":"Observation/202205uscore-observation-example-50"}},{"fullUrl":"http://hapi.fhir.org/baseR4/Observation/202205uscore-observation-example-51","resource":{"resourceType":"Observation","id":"202205uscore-observation-example-51","meta":{"extension":[{"url":"http://hl7.org/fhir/StructureDefinition/instance-name","valueString":"EKG impression Example"},{"url":"http://hl7.org/fhir/StructureDefinition/instance-description","valueMarkdown":"This is a EKG impression Example for the *Clinical Test Result Observation Profile*."}],"profile":["http://hl7.org/fhir/us/core/StructureDefinition/us-core-observation-clinical-test"],"tag":[{"code":"202201uscore"}]},"status":"final","category":[{"coding":[{"system":"http://hl7.org/fhir/us/core/CodeSystem/us-core-observation-category","code":"clinical-test","display":"Clinical Test"}],"text":"Clinical Test"}],"code":{"coding":[{"system":"http://loinc.org","code":"8601-7","display":"EKG impression"}],"text":"EKG impression"},"subject":{"reference":"Patient/202205uscore-patient-example-1","display":"Amy Shaw"},"encounter":{"display":"Cardiology Consult"},"effectiveDateTime":"2021-11-10T16:48:57.246958-08:00","valueString":"Normal Sinus Rhythm (NSR)"},"request":{"method":"PUT","url":"Observation/202205uscore-observation-example-51"}},{"fullUrl":"http://hapi.fhir.org/baseR4/Observation/202205uscore-observation-example-52","resource":{"resourceType":"Observation","id":"202205uscore-observation-example-52","meta":{"extension":[{"url":"http://hl7.org/fhir/StructureDefinition/instance-name","valueString":"Hvs Item Example 88123-5"},{"url":"http://hl7.org/fhir/StructureDefinition/instance-description","valueMarkdown":"This is a Hvs Item Example 88123-5 (The food that (I/we) bought just didn't last, and (I/we) didn't have money to get more.) for the *US Core Screening Response Observation Profile*"}],"profile":["http://hl7.org/fhir/us/core/StructureDefinition/us-core-observation-sdoh-assessment"],"tag":[{"code":"202201uscore"}]},"status":"final","category":[{"coding":[{"system":"http://hl7.org/fhir/us/core/CodeSystem/us-core-tags","code":"sdoh","display":"SDOH"}]},{"coding":[{"system":"http://terminology.hl7.org/CodeSystem/observation-category","code":"survey","display":"Survey"}]}],"code":{"coding":[{"system":"http://loinc.org","code":"88123-5","display":"The food that (I/we) bought just didn't last, and (I/we) didn't have money to get more."}],"text":"The food that (I/we) bought just didn't last, and (I/we) didn't have money to get more."},"subject":{"reference":"Patient/202205uscore-patient-example-1"},"effectiveDateTime":"2020-09-10T21:56:54.671000+00:00","performer":[{"reference":"Patient/202205uscore-patient-example-1"}],"valueCodeableConcept":{"coding":[{"system":"http://loinc.org","code":"LA28397-0","display":"Often true"}],"text":"Often true"},"derivedFrom":[{"reference":"QuestionnaireResponse/202205uscore-questionnaireresponse-example-4","display":"US Core QuestionnaireResponse Hunger Vital Sign Example"}]},"request":{"method":"PUT","url":"Observation/202205uscore-observation-example-52"}},{"fullUrl":"http://hapi.fhir.org/baseR4/Observation/202205uscore-observation-example-53","resource":{"resourceType":"Observation","id":"202205uscore-observation-example-53","meta":{"extension":[{"url":"http://hl7.org/fhir/StructureDefinition/instance-name","valueString":"Ahc-Hrsn Panel Example 96777-8"},{"url":"http://hl7.org/fhir/StructureDefinition/instance-description","valueMarkdown":"This is a Ahc-Hrsn Panel Example 96777-8 (Accountable health communities (AHC) health-related social needs screening (HRSN) tool) for the *US Core Screening Response Observation Profile*"}],"profile":["http://hl7.org/fhir/us/core/StructureDefinition/us-core-observation-sdoh-assessment"],"tag":[{"code":"202201uscore"}]},"status":"final","category":[{"coding":[{"system":"http://hl7.org/fhir/us/core/CodeSystem/us-core-tags","code":"sdoh","display":"SDOH"}]},{"coding":[{"system":"http://terminology.hl7.org/CodeSystem/observation-category","code":"survey","display":"Survey"}]}],"code":{"coding":[{"system":"http://loinc.org","code":"96777-8","display":"Accountable health communities (AHC) health-related social needs screening (HRSN) tool"}],"text":"Accountable health communities (AHC) health-related social needs screening (HRSN) tool"},"subject":{"reference":"Patient/202205uscore-patient-example-1"},"effectiveDateTime":"2022-03-29T22:38:59.084000+00:00","performer":[{"reference":"Patient/202205uscore-patient-example-1"}],"hasMember":[{"reference":"Observation/202205uscore-observation-example-84"},{"reference":"Observation/202205uscore-observation-example-81"},{"reference":"Observation/202205uscore-observation-example-59"},{"reference":"Observation/202205uscore-observation-example-44"},{"reference":"Observation/202205uscore-observation-example-78"},{"reference":"Observation/202205uscore-observation-example-69"},{"reference":"Observation/202205uscore-observation-example-76"},{"reference":"Observation/202205uscore-observation-example-94"},{"reference":"Observation/202205uscore-observation-example-20"},{"reference":"Observation/202205uscore-observation-example-12"},{"reference":"Observation/202205uscore-observation-example-71"},{"reference":"Observation/202205uscore-observation-example-57"},{"reference":"Observation/202205uscore-observation-example-15"},{"reference":"Observation/202205uscore-observation-example-101"},{"reference":"Observation/202205uscore-observation-example-5"},{"reference":"Observation/202205uscore-observation-example-2"},{"reference":"Observation/202205uscore-observation-example-96"}],"derivedFrom":[{"reference":"QuestionnaireResponse/202205uscore-questionnaireresponse-example-3","display":"US Core QuestionnaireResponse AHC HRSN Screening-Example Example"}]},"request":{"method":"PUT","url":"Observation/202205uscore-observation-example-53"}},{"fullUrl":"http://hapi.fhir.org/baseR4/Observation/202205uscore-observation-example-54","resource":{"resourceType":"Observation","id":"202205uscore-observation-example-54","meta":{"extension":[{"url":"http://hl7.org/fhir/StructureDefinition/instance-name","valueString":"Prapare Item Example 76501-6"},{"url":"http://hl7.org/fhir/StructureDefinition/instance-description","valueMarkdown":"This is a Prapare Item Example 76501-6 (Within the last year, have you been afraid of your partner or ex-partner?) for the *US Core Screening Response Observation Profile*"}],"profile":["http://hl7.org/fhir/us/core/StructureDefinition/us-core-observation-sdoh-assessment"],"tag":[{"code":"202201uscore"}]},"status":"final","category":[{"coding":[{"system":"http://hl7.org/fhir/us/core/CodeSystem/us-core-tags","code":"sdoh","display":"SDOH"}]},{"coding":[{"system":"http://terminology.hl7.org/CodeSystem/observation-category","code":"survey","display":"Survey"}]}],"code":{"coding":[{"system":"http://loinc.org","code":"76501-6","display":"Within the last year, have you been afraid of your partner or ex-partner?"}],"text":"Within the last year, have you been afraid of your partner or ex-partner?"},"subject":{"reference":"Patient/202205uscore-patient-example-1"},"effectiveDateTime":"2022-03-28T18:30:40-07:00","performer":[{"reference":"Patient/202205uscore-patient-example-1"}],"valueCodeableConcept":{"coding":[{"system":"http://loinc.org","code":"LA32-8","display":"No"}],"text":"No"},"derivedFrom":[{"reference":"QuestionnaireResponse/202205uscore-questionnaireresponse-example-1","display":"US Core QuestionnaireResponse PRAPARE Example"}]},"request":{"method":"PUT","url":"Observation/202205uscore-observation-example-54"}},{"fullUrl":"http://hapi.fhir.org/baseR4/Observation/202205uscore-observation-example-55","resource":{"resourceType":"Observation","id":"202205uscore-observation-example-55","meta":{"extension":[{"url":"http://hl7.org/fhir/StructureDefinition/instance-name","valueString":"10 minute Apgar Heart Rate Example"},{"url":"http://hl7.org/fhir/StructureDefinition/instance-description","valueMarkdown":"This example of a US Core Survey Observation Profile illustrates its use to directly capture individual surveys assessment items as an observations. It is not derived from a FHIR QuestionnaireResponse."}],"profile":["http://hl7.org/fhir/us/core/StructureDefinition/us-core-observation-survey"],"tag":[{"code":"202201uscore"}]},"status":"final","category":[{"coding":[{"system":"http://terminology.hl7.org/CodeSystem/observation-category","code":"survey","display":"Survey"}],"text":"Survey"}],"code":{"coding":[{"system":"http://loinc.org","code":"32402-0","display":"10 minute Apgar Heart Rate"}],"text":"Apgar respiratory effort score"},"subject":{"reference":"Patient/202205uscore-patient-example-2"},"effectiveDateTime":"2016-05-18T22:33:22+00:00","performer":[{"reference":"Practitioner/202205uscore-practitioner-example-1","display":"Ronald Bone"}],"valueCodeableConcept":{"coding":[{"extension":[{"url":"http://hl7.org/fhir/StructureDefinition/ordinalValue","valueDecimal":2}],"system":"http://loinc.org","code":"LA6718-6","display":"At least 100 beats per minute"}],"text":"2. At least 100 beats per minute"}},"request":{"method":"PUT","url":"Observation/202205uscore-observation-example-55"}},{"fullUrl":"http://hapi.fhir.org/baseR4/Observation/202205uscore-observation-example-56","resource":{"resourceType":"Observation","id":"202205uscore-observation-example-56","meta":{"extension":[{"url":"http://hl7.org/fhir/StructureDefinition/instance-name","valueString":"Prapare Item Example 63512-8"},{"url":"http://hl7.org/fhir/StructureDefinition/instance-description","valueMarkdown":"This is a Prapare Item Example 63512-8 (How many people are living or staying at this address?) for the *US Core Screening Response Observation Profile*"}],"profile":["http://hl7.org/fhir/us/core/StructureDefinition/us-core-observation-sdoh-assessment"],"tag":[{"code":"202201uscore"}]},"status":"final","category":[{"coding":[{"system":"http://hl7.org/fhir/us/core/CodeSystem/us-core-tags","code":"sdoh","display":"SDOH"}]},{"coding":[{"system":"http://terminology.hl7.org/CodeSystem/observation-category","code":"survey","display":"Survey"}]}],"code":{"coding":[{"system":"http://loinc.org","code":"63512-8","display":"How many people are living or staying at this address?"}],"text":"How many people are living or staying at this address?"},"subject":{"reference":"Patient/202205uscore-patient-example-1"},"effectiveDateTime":"2022-03-28T18:30:40-07:00","performer":[{"reference":"Patient/202205uscore-patient-example-1"}],"valueQuantity":{"value":6},"derivedFrom":[{"reference":"QuestionnaireResponse/202205uscore-questionnaireresponse-example-1","display":"US Core QuestionnaireResponse PRAPARE Example"}]},"request":{"method":"PUT","url":"Observation/202205uscore-observation-example-56"}},{"fullUrl":"http://hapi.fhir.org/baseR4/Observation/202205uscore-observation-example-57","resource":{"resourceType":"Observation","id":"202205uscore-observation-example-57","meta":{"extension":[{"url":"http://hl7.org/fhir/StructureDefinition/instance-name","valueString":"Ahc-Hrsn Item Example 68524-8"},{"url":"http://hl7.org/fhir/StructureDefinition/instance-description","valueMarkdown":"This is a Ahc-Hrsn Item Example 68524-8 (How many times in the past year have you used illegal drugs?) for the *US Core Screening Response Observation Profile*"}],"profile":["http://hl7.org/fhir/us/core/StructureDefinition/us-core-observation-sdoh-assessment"],"tag":[{"code":"202201uscore"}]},"status":"final","category":[{"coding":[{"system":"http://hl7.org/fhir/us/core/CodeSystem/us-core-tags","code":"sdoh","display":"SDOH"}]},{"coding":[{"system":"http://terminology.hl7.org/CodeSystem/observation-category","code":"survey","display":"Survey"}]}],"code":{"coding":[{"system":"http://loinc.org","code":"68524-8","display":"Illegal drug non-med reason past Y nRate"}],"text":"How many times in the past year have you used illegal drugs?"},"subject":{"reference":"Patient/202205uscore-patient-example-1"},"effectiveDateTime":"2022-03-29T22:38:59.084000+00:00","performer":[{"reference":"Patient/202205uscore-patient-example-1"}],"valueCodeableConcept":{"coding":[{"system":"http://loinc.org","code":"LA6270-8","display":"Never"}],"text":"Never"},"derivedFrom":[{"reference":"QuestionnaireResponse/202205uscore-questionnaireresponse-example-3","display":"US Core QuestionnaireResponse AHC HRSN Screening-Example Example"}]},"request":{"method":"PUT","url":"Observation/202205uscore-observation-example-57"}},{"fullUrl":"http://hapi.fhir.org/baseR4/Observation/202205uscore-observation-example-58","resource":{"resourceType":"Observation","id":"202205uscore-observation-example-58","meta":{"extension":[{"url":"http://hl7.org/fhir/StructureDefinition/instance-name","valueString":"Height Example"},{"url":"http://hl7.org/fhir/StructureDefinition/instance-description","valueMarkdown":"This is a height example for the *Vitalsigns Profile*."}],"profile":["http://hl7.org/fhir/us/core/StructureDefinition/us-core-body-height"],"tag":[{"code":"202201uscore"}]},"status":"final","category":[{"coding":[{"system":"http://terminology.hl7.org/CodeSystem/observation-category","code":"vital-signs","display":"Vital Signs"}],"text":"Vital Signs"}],"code":{"coding":[{"system":"http://loinc.org","code":"8302-2","display":"Body height"}],"text":"height"},"subject":{"reference":"Patient/202205uscore-patient-example-1","display":"Amy Shaw"},"encounter":{"display":"GP Visit"},"effectiveDateTime":"1999-07-02","valueQuantity":{"value":111.506,"unit":"cm","system":"http://unitsofmeasure.org","code":"cm"}},"request":{"method":"PUT","url":"Observation/202205uscore-observation-example-58"}},{"fullUrl":"http://hapi.fhir.org/baseR4/Observation/202205uscore-observation-example-59","resource":{"resourceType":"Observation","id":"202205uscore-observation-example-59","meta":{"extension":[{"url":"http://hl7.org/fhir/StructureDefinition/instance-name","valueString":"Ahc-Hrsn Item Example 96781-0"},{"url":"http://hl7.org/fhir/StructureDefinition/instance-description","valueMarkdown":"This is a Ahc-Hrsn Item Example 96781-0 (If for any reason you need help with day-to-day activities such as bathing, preparing meals, shopping, managing finances, etc., do you get the help you need?) for the *US Core Screening Response Observation Profile*"}],"profile":["http://hl7.org/fhir/us/core/StructureDefinition/us-core-observation-sdoh-assessment"],"tag":[{"code":"202201uscore"}]},"status":"final","category":[{"coding":[{"system":"http://hl7.org/fhir/us/core/CodeSystem/us-core-tags","code":"sdoh","display":"SDOH"}]},{"coding":[{"system":"http://terminology.hl7.org/CodeSystem/observation-category","code":"survey","display":"Survey"}]}],"code":{"coding":[{"system":"http://loinc.org","code":"96781-0","display":"Able to get help with daily activities when needed"}],"text":"If for any reason you need help with day-to-day activities such as bathing, preparing meals, shopping, managing finances, etc., do you get the help you need?"},"subject":{"reference":"Patient/202205uscore-patient-example-1"},"effectiveDateTime":"2022-03-29T22:38:59.084000+00:00","performer":[{"reference":"Patient/202205uscore-patient-example-1"}],"valueCodeableConcept":{"coding":[{"system":"http://loinc.org","code":"LA31976-6","display":"I don't need any help"}],"text":"I don't need any help"},"derivedFrom":[{"reference":"QuestionnaireResponse/202205uscore-questionnaireresponse-example-3","display":"US Core QuestionnaireResponse AHC HRSN Screening-Example Example"}]},"request":{"method":"PUT","url":"Observation/202205uscore-observation-example-59"}},{"fullUrl":"http://hapi.fhir.org/baseR4/Observation/202205uscore-observation-example-60","resource":{"resourceType":"Observation","id":"202205uscore-observation-example-60","meta":{"extension":[{"url":"http://hl7.org/fhir/StructureDefinition/instance-name","valueString":"Prapare Item Example 82589-3"},{"url":"http://hl7.org/fhir/StructureDefinition/instance-description","valueMarkdown":"This is a Prapare Item Example 82589-3 (Highest level of educ) for the *US Core Screening Response Observation Profile*"}],"profile":["http://hl7.org/fhir/us/core/StructureDefinition/us-core-observation-sdoh-assessment"],"tag":[{"code":"202201uscore"}]},"status":"final","category":[{"coding":[{"system":"http://hl7.org/fhir/us/core/CodeSystem/us-core-tags","code":"sdoh","display":"SDOH"}]},{"coding":[{"system":"http://terminology.hl7.org/CodeSystem/observation-category","code":"survey","display":"Survey"}]}],"code":{"coding":[{"system":"http://loinc.org","code":"82589-3","display":"Highest level of educ"}],"text":"Highest level of educ"},"subject":{"reference":"Patient/202205uscore-patient-example-1"},"effectiveDateTime":"2022-03-28T18:30:40-07:00","performer":[{"reference":"Patient/202205uscore-patient-example-1"}],"valueCodeableConcept":{"coding":[{"system":"http://loinc.org","code":"LA30191-3","display":"Less than high school degree"}],"text":"Less than high school degree"},"derivedFrom":[{"reference":"QuestionnaireResponse/202205uscore-questionnaireresponse-example-1","display":"US Core QuestionnaireResponse PRAPARE Example"}]},"request":{"method":"PUT","url":"Observation/202205uscore-observation-example-60"}},{"fullUrl":"http://hapi.fhir.org/baseR4/Observation/202205uscore-observation-example-61","resource":{"resourceType":"Observation","id":"202205uscore-observation-example-61","meta":{"extension":[{"url":"http://hl7.org/fhir/StructureDefinition/instance-name","valueString":"Blood Glucose Example"},{"url":"http://hl7.org/fhir/StructureDefinition/instance-description","valueMarkdown":"This is a blood glucose example for the *US Core Observation Lab Profile*."}],"versionId":"1165","lastUpdated":"2016-03-09T15:29:58.328000+00:00","profile":["http://hl7.org/fhir/us/core/StructureDefinition/us-core-observation-lab"],"tag":[{"code":"202201uscore"}]},"status":"final","category":[{"coding":[{"system":"http://terminology.hl7.org/CodeSystem/observation-category","code":"laboratory","display":"Laboratory"}],"text":"Laboratory"}],"code":{"coding":[{"system":"http://loinc.org","code":"2339-0","display":"Glucose Bld-mCnc"}],"text":"Glucose Bld-mCnc"},"subject":{"reference":"Patient/202205uscore-patient-example-1","display":"Amy Shaw"},"effectiveDateTime":"2005-07-05","valueQuantity":{"value":76.0,"unit":"mg/dL","system":"http://unitsofmeasure.org"},"referenceRange":[{"low":{"value":40.0,"unit":"mg/dL","system":"http://unitsofmeasure.org","code":"mg/dL"},"high":{"value":109.0,"unit":"mg/dL","system":"http://unitsofmeasure.org","code":"mg/dL"},"type":{"coding":[{"system":"http://terminology.hl7.org/CodeSystem/referencerange-meaning","code":"normal","display":"Normal Range"}],"text":"Normal Range"}}]},"request":{"method":"PUT","url":"Observation/202205uscore-observation-example-61"}},{"fullUrl":"http://hapi.fhir.org/baseR4/Observation/202205uscore-observation-example-62","resource":{"resourceType":"Observation","id":"202205uscore-observation-example-62","meta":{"extension":[{"url":"http://hl7.org/fhir/StructureDefinition/instance-name","valueString":"10 Minute Apgar Score Example"},{"url":"http://hl7.org/fhir/StructureDefinition/instance-description","valueMarkdown":"This example of a US Core Survey Observation Profile illustrates its use to directly capture individual surveys assessment items as an observations. It is not derived from a FHIR QuestionnaireResponse."}],"profile":["http://hl7.org/fhir/us/core/StructureDefinition/us-core-observation-survey"],"tag":[{"code":"202201uscore"}]},"status":"final","category":[{"coding":[{"system":"http://terminology.hl7.org/CodeSystem/observation-category","code":"survey","display":"Survey"}],"text":"Survey"}],"code":{"coding":[{"system":"http://loinc.org","code":"9271-8","display":"10 minute Apgar Score"}],"text":"10 minute Apgar Score"},"subject":{"reference":"Patient/202205uscore-patient-example-2"},"effectiveDateTime":"2016-05-18T22:33:22+00:00","performer":[{"reference":"Practitioner/202205uscore-practitioner-example-1","display":"Ronald Bone"}],"valueQuantity":{"value":10,"unit":"score","system":"http://unitsofmeasure.org","code":"1"}},"request":{"method":"PUT","url":"Observation/202205uscore-observation-example-62"}},{"fullUrl":"http://hapi.fhir.org/baseR4/Observation/202205uscore-observation-example-63","resource":{"resourceType":"Observation","id":"202205uscore-observation-example-63","meta":{"extension":[{"url":"http://hl7.org/fhir/StructureDefinition/instance-name","valueString":"Prapare Item Example 71802-3"},{"url":"http://hl7.org/fhir/StructureDefinition/instance-description","valueMarkdown":"This is a Prapare Item Example 71802-3 (Housing status) for the *US Core Screening Response Observation Profile*"}],"profile":["http://hl7.org/fhir/us/core/StructureDefinition/us-core-observation-sdoh-assessment"],"tag":[{"code":"202201uscore"}]},"status":"final","category":[{"coding":[{"system":"http://hl7.org/fhir/us/core/CodeSystem/us-core-tags","code":"sdoh","display":"SDOH"}]},{"coding":[{"system":"http://terminology.hl7.org/CodeSystem/observation-category","code":"survey","display":"Survey"}]}],"code":{"coding":[{"system":"http://loinc.org","code":"71802-3","display":"Housing status"}],"text":"Housing status"},"subject":{"reference":"Patient/202205uscore-patient-example-1"},"effectiveDateTime":"2022-03-28T18:30:40-07:00","performer":[{"reference":"Patient/202205uscore-patient-example-1"}],"valueCodeableConcept":{"coding":[{"system":"http://loinc.org","code":"LA30190-5","display":"I do not have housing (staying with others, in a hotel, in a shelter, living outside on the street, on a beach, in a car, or in a park)"}],"text":"I do not have housing (staying with others, in a hotel, in a shelter, living outside on the street, on a beach, in a car, or in a park)"},"derivedFrom":[{"reference":"QuestionnaireResponse/202205uscore-questionnaireresponse-example-1","display":"US Core QuestionnaireResponse PRAPARE Example"}]},"request":{"method":"PUT","url":"Observation/202205uscore-observation-example-63"}},{"fullUrl":"http://hapi.fhir.org/baseR4/Observation/202205uscore-observation-example-64","resource":{"resourceType":"Observation","id":"202205uscore-observation-example-64","meta":{"extension":[{"url":"http://hl7.org/fhir/StructureDefinition/instance-name","valueString":"Heart rate rhythm Example"},{"url":"http://hl7.org/fhir/StructureDefinition/instance-description","valueMarkdown":"This is a Heart rate rhythm Example for the *Clinical Test Result Observation Profile*."}],"profile":["http://hl7.org/fhir/us/core/StructureDefinition/us-core-observation-clinical-test"],"tag":[{"code":"202201uscore"}]},"status":"final","category":[{"coding":[{"system":"http://hl7.org/fhir/us/core/CodeSystem/us-core-observation-category","code":"clinical-test","display":"Clinical Test"}],"text":"Clinical Test"}],"code":{"coding":[{"system":"http://loinc.org","code":"8884-9","display":"Heart rate rhythm"}],"text":"Heart rate rhythm"},"subject":{"reference":"Patient/202205uscore-patient-example-1","display":"Amy Shaw"},"encounter":{"display":"Cardiology Consult"},"effectiveDateTime":"2021-11-10T16:48:57.246958-08:00","valueString":"Regular (R)"},"request":{"method":"PUT","url":"Observation/202205uscore-observation-example-64"}},{"fullUrl":"http://hapi.fhir.org/baseR4/Observation/202205uscore-observation-example-65","resource":{"resourceType":"Observation","id":"202205uscore-observation-example-65","meta":{"extension":[{"url":"http://hl7.org/fhir/StructureDefinition/instance-name","valueString":"Social History Assessment Example"},{"url":"http://hl7.org/fhir/StructureDefinition/instance-description","valueMarkdown":"This is a Social History Assessment Example for the *US Core Observation Social History Profile*."}],"profile":["http://hl7.org/fhir/us/core/StructureDefinition/us-core-observation-social-history"],"tag":[{"code":"202201uscore"}]},"status":"final","category":[{"coding":[{"system":"http://hl7.org/fhir/us/core/CodeSystem/us-core-tags","code":"sdoh","display":"SDOH"}]},{"coding":[{"system":"http://terminology.hl7.org/CodeSystem/observation-category","code":"social-history","display":"Social History"}]}],"code":{"coding":[{"system":"http://snomed.info/sct","code":"160695008","display":"Transport too expensive"}]},"subject":{"reference":"Patient/202205uscore-patient-example-1"},"effectiveDateTime":"2021-05-10T21:56:54.671000+00:00","valueBoolean":true},"request":{"method":"PUT","url":"Observation/202205uscore-observation-example-65"}},{"fullUrl":"http://hapi.fhir.org/baseR4/Observation/202205uscore-observation-example-66","resource":{"resourceType":"Observation","id":"202205uscore-observation-example-66","meta":{"extension":[{"url":"http://hl7.org/fhir/StructureDefinition/instance-name","valueString":"Prapare Item Example 93035-4"},{"url":"http://hl7.org/fhir/StructureDefinition/instance-description","valueMarkdown":"This is a Prapare Item Example 93035-4 (At any point in the past 2 years, has season or migrant farm work been your or your family's main source of income?) for the *US Core Screening Response Observation Profile*"}],"profile":["http://hl7.org/fhir/us/core/StructureDefinition/us-core-observation-sdoh-assessment"],"tag":[{"code":"202201uscore"}]},"status":"final","category":[{"coding":[{"system":"http://hl7.org/fhir/us/core/CodeSystem/us-core-tags","code":"sdoh","display":"SDOH"}]},{"coding":[{"system":"http://terminology.hl7.org/CodeSystem/observation-category","code":"survey","display":"Survey"}]}],"code":{"coding":[{"system":"http://loinc.org","code":"93035-4","display":"At any point in the past 2 years, has season or migrant farm work been your or your family's main source of income?"}],"text":"At any point in the past 2 years, has season or migrant farm work been your or your family's main source of income?"},"subject":{"reference":"Patient/202205uscore-patient-example-1"},"effectiveDateTime":"2022-03-28T18:30:40-07:00","performer":[{"reference":"Patient/202205uscore-patient-example-1"}],"valueCodeableConcept":{"coding":[{"system":"http://loinc.org","code":"LA33-6","display":"Yes"}],"text":"Yes"},"derivedFrom":[{"reference":"QuestionnaireResponse/202205uscore-questionnaireresponse-example-1","display":"US Core QuestionnaireResponse PRAPARE Example"}]},"request":{"method":"PUT","url":"Observation/202205uscore-observation-example-66"}},{"fullUrl":"http://hapi.fhir.org/baseR4/Observation/202205uscore-observation-example-67","resource":{"resourceType":"Observation","id":"202205uscore-observation-example-67","meta":{"extension":[{"url":"http://hl7.org/fhir/StructureDefinition/instance-name","valueString":"Prapare Item Example 63586-2"},{"url":"http://hl7.org/fhir/StructureDefinition/instance-description","valueMarkdown":"This is a Prapare Item Example 63586-2 (What was your best estimate of the total income of all family members from all sources, before taxes, in last year?) for the *US Core Screening Response Observation Profile*"}],"profile":["http://hl7.org/fhir/us/core/StructureDefinition/us-core-observation-sdoh-assessment"],"tag":[{"code":"202201uscore"}]},"status":"final","category":[{"coding":[{"system":"http://hl7.org/fhir/us/core/CodeSystem/us-core-tags","code":"sdoh","display":"SDOH"}]},{"coding":[{"system":"http://terminology.hl7.org/CodeSystem/observation-category","code":"survey","display":"Survey"}]}],"code":{"coding":[{"system":"http://loinc.org","code":"63586-2","display":"What was your best estimate of the total income of all family members from all sources, before taxes, in last year?"}],"text":"What was your best estimate of the total income of all family members from all sources, before taxes, in last year?"},"subject":{"reference":"Patient/202205uscore-patient-example-1"},"effectiveDateTime":"2022-03-28T18:30:40-07:00","performer":[{"reference":"Patient/202205uscore-patient-example-1"}],"valueString":"25000","derivedFrom":[{"reference":"QuestionnaireResponse/202205uscore-questionnaireresponse-example-1","display":"US Core QuestionnaireResponse PRAPARE Example"}]},"request":{"method":"PUT","url":"Observation/202205uscore-observation-example-67"}},{"fullUrl":"http://hapi.fhir.org/baseR4/Observation/202205uscore-observation-example-68","resource":{"resourceType":"Observation","id":"202205uscore-observation-example-68","meta":{"extension":[{"url":"http://hl7.org/fhir/StructureDefinition/instance-name","valueString":"Prapare Panel Example 93041-2"},{"url":"http://hl7.org/fhir/StructureDefinition/instance-description","valueMarkdown":"This is a Prapare Panel Example 93041-2 (Money and resources) for the *US Core Screening Response Observation Profile*"}],"profile":["http://hl7.org/fhir/us/core/StructureDefinition/us-core-observation-sdoh-assessment"],"tag":[{"code":"202201uscore"}]},"status":"final","category":[{"coding":[{"system":"http://hl7.org/fhir/us/core/CodeSystem/us-core-tags","code":"sdoh","display":"SDOH"}]},{"coding":[{"system":"http://terminology.hl7.org/CodeSystem/observation-category","code":"survey","display":"Survey"}]}],"code":{"coding":[{"system":"http://loinc.org","code":"93041-2","display":"Money and resources [PRAPARE]"}],"text":"Money and resources"},"subject":{"reference":"Patient/202205uscore-patient-example-1"},"effectiveDateTime":"2022-03-28T18:30:40-07:00","performer":[{"reference":"Patient/202205uscore-patient-example-1"}],"hasMember":[{"reference":"Observation/202205uscore-observation-example-60"},{"reference":"Observation/202205uscore-observation-example-13"},{"reference":"Observation/202205uscore-observation-example-17"},{"reference":"Observation/202205uscore-observation-example-67"},{"reference":"Observation/202205uscore-observation-example-3"},{"reference":"Observation/202205uscore-observation-example-25"},{"reference":"Observation/202205uscore-observation-example-50"}],"derivedFrom":[{"reference":"QuestionnaireResponse/202205uscore-questionnaireresponse-example-1","display":"US Core QuestionnaireResponse PRAPARE Example"}]},"request":{"method":"PUT","url":"Observation/202205uscore-observation-example-68"}},{"fullUrl":"http://hapi.fhir.org/baseR4/Observation/202205uscore-observation-example-69","resource":{"resourceType":"Observation","id":"202205uscore-observation-example-69","meta":{"extension":[{"url":"http://hl7.org/fhir/StructureDefinition/instance-name","valueString":"Ahc-Hrsn Item Example 96782-8"},{"url":"http://hl7.org/fhir/StructureDefinition/instance-description","valueMarkdown":"This is a Ahc-Hrsn Item Example 96782-8 (Do you want help with school or training? For example, starting or completing job training or getting a high school diploma, GED or equivalent.) for the *US Core Screening Response Observation Profile*"}],"profile":["http://hl7.org/fhir/us/core/StructureDefinition/us-core-observation-sdoh-assessment"],"tag":[{"code":"202201uscore"}]},"status":"final","category":[{"coding":[{"system":"http://hl7.org/fhir/us/core/CodeSystem/us-core-tags","code":"sdoh","display":"SDOH"}]},{"coding":[{"system":"http://terminology.hl7.org/CodeSystem/observation-category","code":"survey","display":"Survey"}]}],"code":{"coding":[{"system":"http://loinc.org","code":"96782-8","display":"Wants help with school or training"}],"text":"Do you want help with school or training? For example, starting or completing job training or getting a high school diploma, GED or equivalent."},"subject":{"reference":"Patient/202205uscore-patient-example-1"},"effectiveDateTime":"2022-03-29T22:38:59.084000+00:00","performer":[{"reference":"Patient/202205uscore-patient-example-1"}],"valueCodeableConcept":{"coding":[{"system":"http://loinc.org","code":"LA32-8","display":"No"}],"text":"No"},"derivedFrom":[{"reference":"QuestionnaireResponse/202205uscore-questionnaireresponse-example-3","display":"US Core QuestionnaireResponse AHC HRSN Screening-Example Example"}]},"request":{"method":"PUT","url":"Observation/202205uscore-observation-example-69"}},{"fullUrl":"http://hapi.fhir.org/baseR4/Observation/202205uscore-observation-example-70","resource":{"resourceType":"Observation","id":"202205uscore-observation-example-70","meta":{"extension":[{"url":"http://hl7.org/fhir/StructureDefinition/instance-name","valueString":"Head Circumference Example"},{"url":"http://hl7.org/fhir/StructureDefinition/instance-description","valueMarkdown":"This is a head circumference example for the *US Core Head Circumference Profile*."}],"profile":["http://hl7.org/fhir/us/core/StructureDefinition/us-core-head-circumference"],"tag":[{"code":"202201uscore"}]},"status":"final","category":[{"coding":[{"system":"http://terminology.hl7.org/CodeSystem/observation-category","code":"vital-signs","display":"Vital Signs"}],"text":"Vital Signs"}],"code":{"coding":[{"system":"http://loinc.org","code":"9843-4","display":"Head Occipital-frontal circumference"}],"text":"Head Circumference"},"subject":{"reference":"Patient/202205uscore-patient-example-2"},"effectiveDateTime":"2020-11-18T16:19:31-08:00","valueQuantity":{"value":51.2,"unit":"cm","system":"http://unitsofmeasure.org","code":"cm"}},"request":{"method":"PUT","url":"Observation/202205uscore-observation-example-70"}},{"fullUrl":"http://hapi.fhir.org/baseR4/Observation/202205uscore-observation-example-71","resource":{"resourceType":"Observation","id":"202205uscore-observation-example-71","meta":{"extension":[{"url":"http://hl7.org/fhir/StructureDefinition/instance-name","valueString":"Ahc-Hrsn Item Example 95530-2"},{"url":"http://hl7.org/fhir/StructureDefinition/instance-description","valueMarkdown":"This is a Ahc-Hrsn Item Example 95530-2 (How many times in the past year have you used prescription drugs for non-medical reasons?) for the *US Core Screening Response Observation Profile*"}],"profile":["http://hl7.org/fhir/us/core/StructureDefinition/us-core-observation-sdoh-assessment"],"tag":[{"code":"202201uscore"}]},"status":"final","category":[{"coding":[{"system":"http://hl7.org/fhir/us/core/CodeSystem/us-core-tags","code":"sdoh","display":"SDOH"}]},{"coding":[{"system":"http://terminology.hl7.org/CodeSystem/observation-category","code":"survey","display":"Survey"}]}],"code":{"coding":[{"system":"http://loinc.org","code":"95530-2","display":"Prescription drug use 1Y"}],"text":"How many times in the past year have you used prescription drugs for non-medical reasons?"},"subject":{"reference":"Patient/202205uscore-patient-example-1"},"effectiveDateTime":"2022-03-29T22:38:59.084000+00:00","performer":[{"reference":"Patient/202205uscore-patient-example-1"}],"valueCodeableConcept":{"coding":[{"system":"http://loinc.org","code":"LA6270-8","display":"Never"}],"text":"Never"},"derivedFrom":[{"reference":"QuestionnaireResponse/202205uscore-questionnaireresponse-example-3","display":"US Core QuestionnaireResponse AHC HRSN Screening-Example Example"}]},"request":{"method":"PUT","url":"Observation/202205uscore-observation-example-71"}},{"fullUrl":"http://hapi.fhir.org/baseR4/Observation/202205uscore-observation-example-72","resource":{"resourceType":"Observation","id":"202205uscore-observation-example-72","meta":{"extension":[{"url":"http://hl7.org/fhir/StructureDefinition/instance-name","valueString":"Heart Rate Example"},{"url":"http://hl7.org/fhir/StructureDefinition/instance-description","valueMarkdown":"This is a heart rate example for the *Vitalsigns Profile*."}],"profile":["http://hl7.org/fhir/us/core/StructureDefinition/us-core-heart-rate"],"tag":[{"code":"202201uscore"}]},"status":"final","category":[{"coding":[{"system":"http://terminology.hl7.org/CodeSystem/observation-category","code":"vital-signs","display":"Vital Signs"}],"text":"Vital Signs"}],"code":{"coding":[{"system":"http://loinc.org","code":"8867-4","display":"Heart Rate"}],"text":"heart_rate"},"subject":{"reference":"Patient/202205uscore-patient-example-1","display":"Amy Shaw"},"encounter":{"display":"GP Visit"},"effectiveDateTime":"1999-07-02","valueQuantity":{"value":44.0,"unit":"beats/min","system":"http://unitsofmeasure.org","code":"/min"}},"request":{"method":"PUT","url":"Observation/202205uscore-observation-example-72"}},{"fullUrl":"http://hapi.fhir.org/baseR4/Observation/202205uscore-observation-example-73","resource":{"resourceType":"Observation","id":"202205uscore-observation-example-73","meta":{"extension":[{"url":"http://hl7.org/fhir/StructureDefinition/instance-name","valueString":"10 minute Apgar Color Example"},{"url":"http://hl7.org/fhir/StructureDefinition/instance-description","valueMarkdown":"This example of a US Core Survey Observation Profile illustrates its use to directly capture individual surveys assessment items as an observations. It is not derived from a FHIR QuestionnaireResponse."}],"profile":["http://hl7.org/fhir/us/core/StructureDefinition/us-core-observation-survey"],"tag":[{"code":"202201uscore"}]},"status":"final","category":[{"coding":[{"system":"http://terminology.hl7.org/CodeSystem/observation-category","code":"survey","display":"Survey"}],"text":"Survey"}],"code":{"coding":[{"system":"http://loinc.org","code":"32401-2","display":"10 minute Apgar Color"}],"text":"Apgar color score"},"subject":{"reference":"Patient/202205uscore-patient-example-2"},"effectiveDateTime":"2016-05-18T22:33:22+00:00","performer":[{"reference":"Practitioner/202205uscore-practitioner-example-1","display":"Ronald Bone"}],"valueCodeableConcept":{"coding":[{"extension":[{"url":"http://hl7.org/fhir/StructureDefinition/ordinalValue","valueDecimal":2}],"system":"http://loinc.org","code":"LA6724-4","display":"Good color all over"}],"text":"2. Good color all over"}},"request":{"method":"PUT","url":"Observation/202205uscore-observation-example-73"}},{"fullUrl":"http://hapi.fhir.org/baseR4/Observation/202205uscore-observation-example-74","resource":{"resourceType":"Observation","id":"202205uscore-observation-example-74","meta":{"extension":[{"url":"http://hl7.org/fhir/StructureDefinition/instance-name","valueString":"DXA Femur-L T-score BMD Example"},{"url":"http://hl7.org/fhir/StructureDefinition/instance-description","valueMarkdown":"This is a DXA Femur-L T-score BMD Example for the *Clinical Test Result Observation Profile*."}],"profile":["http://hl7.org/fhir/us/core/StructureDefinition/us-core-observation-clinical-test"],"tag":[{"code":"202201uscore"}]},"status":"final","category":[{"coding":[{"system":"http://hl7.org/fhir/us/core/CodeSystem/us-core-observation-category","code":"clinical-test","display":"Clinical Test"}],"text":"Clinical Test"}],"code":{"coding":[{"system":"http://loinc.org","code":"80948-3","display":"DXA Femur-L T-score BMD"}],"text":"DXA Femur-L T-score BMD"},"subject":{"reference":"Patient/202205uscore-patient-example-1","display":"Amy Shaw"},"encounter":{"display":"Bone Scan"},"effectiveDateTime":"2021-11-10T19:14:41.088720-08:00","valueQuantity":{"value":-1.48,"unit":"T-Score","system":"http://unitsofmeasure.org","code":"{T-Score}"}},"request":{"method":"PUT","url":"Observation/202205uscore-observation-example-74"}},{"fullUrl":"http://hapi.fhir.org/baseR4/Observation/202205uscore-observation-example-75","resource":{"resourceType":"Observation","id":"202205uscore-observation-example-75","meta":{"extension":[{"url":"http://hl7.org/fhir/StructureDefinition/instance-name","valueString":"Prapare Item Example 93033-9"},{"url":"http://hl7.org/fhir/StructureDefinition/instance-description","valueMarkdown":"This is a Prapare Item Example 93033-9 (Are you worried about losing your housing?) for the *US Core Screening Response Observation Profile*"}],"profile":["http://hl7.org/fhir/us/core/StructureDefinition/us-core-observation-sdoh-assessment"],"tag":[{"code":"202201uscore"}]},"status":"final","category":[{"coding":[{"system":"http://hl7.org/fhir/us/core/CodeSystem/us-core-tags","code":"sdoh","display":"SDOH"}]},{"coding":[{"system":"http://terminology.hl7.org/CodeSystem/observation-category","code":"survey","display":"Survey"}]}],"code":{"coding":[{"system":"http://loinc.org","code":"93033-9","display":"Are you worried about losing your housing?"}],"text":"Are you worried about losing your housing?"},"subject":{"reference":"Patient/202205uscore-patient-example-1"},"effectiveDateTime":"2022-03-28T18:30:40-07:00","performer":[{"reference":"Patient/202205uscore-patient-example-1"}],"valueCodeableConcept":{"coding":[{"system":"http://loinc.org","code":"LA30122-8","display":"I choose not to answer this question"}],"text":"I choose not to answer this question"},"derivedFrom":[{"reference":"QuestionnaireResponse/202205uscore-questionnaireresponse-example-1","display":"US Core QuestionnaireResponse PRAPARE Example"}]},"request":{"method":"PUT","url":"Observation/202205uscore-observation-example-75"}},{"fullUrl":"http://hapi.fhir.org/baseR4/Observation/202205uscore-observation-example-76","resource":{"resourceType":"Observation","id":"202205uscore-observation-example-76","meta":{"extension":[{"url":"http://hl7.org/fhir/StructureDefinition/instance-name","valueString":"Ahc-Hrsn Item Example 89555-7"},{"url":"http://hl7.org/fhir/StructureDefinition/instance-description","valueMarkdown":"This is a Ahc-Hrsn Item Example 89555-7 (In the last 30 days, other than the activities you did for work, on average, how many days per week did you engage in moderate exercise (like walking fast, running, jogging, dancing, swimming, biking, or other similar activities)?) for the *US Core Screening Response Observation Profile*"}],"profile":["http://hl7.org/fhir/us/core/StructureDefinition/us-core-observation-sdoh-assessment"],"tag":[{"code":"202201uscore"}]},"status":"final","category":[{"coding":[{"system":"http://hl7.org/fhir/us/core/CodeSystem/us-core-tags","code":"sdoh","display":"SDOH"}]},{"coding":[{"system":"http://terminology.hl7.org/CodeSystem/observation-category","code":"survey","display":"Survey"}]}],"code":{"coding":[{"system":"http://loinc.org","code":"89555-7","display":"How many days per week did you engage in moderate to strenuous physical activity in the last 30 days"}],"text":"In the last 30 days, other than the activities you did for work, on average, how many days per week did you engage in moderate exercise (like walking fast, running, jogging, dancing, swimming, biking, or other similar activities)?"},"subject":{"reference":"Patient/202205uscore-patient-example-1"},"effectiveDateTime":"2022-03-29T22:38:59.084000+00:00","performer":[{"reference":"Patient/202205uscore-patient-example-1"}],"valueCodeableConcept":{"coding":[{"system":"http://loinc.org","code":"LA10137-0","display":"5"}],"text":"5"},"derivedFrom":[{"reference":"QuestionnaireResponse/202205uscore-questionnaireresponse-example-3","display":"US Core QuestionnaireResponse AHC HRSN Screening-Example Example"}]},"request":{"method":"PUT","url":"Observation/202205uscore-observation-example-76"}},{"fullUrl":"http://hapi.fhir.org/baseR4/Observation/202205uscore-observation-example-77","resource":{"resourceType":"Observation","id":"202205uscore-observation-example-77","meta":{"extension":[{"url":"http://hl7.org/fhir/StructureDefinition/instance-name","valueString":"P-R interval {EKG lead} Example"},{"url":"http://hl7.org/fhir/StructureDefinition/instance-description","valueMarkdown":"This is a P-R interval {EKG lead} Example for the *Clinical Test Result Observation Profile*."}],"profile":["http://hl7.org/fhir/us/core/StructureDefinition/us-core-observation-clinical-test"],"tag":[{"code":"202201uscore"}]},"status":"final","category":[{"coding":[{"system":"http://hl7.org/fhir/us/core/CodeSystem/us-core-observation-category","code":"clinical-test","display":"Clinical Test"}],"text":"Clinical Test"}],"code":{"coding":[{"system":"http://loinc.org","code":"44976-9","display":"P-R interval {EKG lead}"}],"text":"P-R interval {EKG lead}"},"subject":{"reference":"Patient/202205uscore-patient-example-1","display":"Amy Shaw"},"encounter":{"display":"Cardiology Consult"},"effectiveDateTime":"2021-11-10T16:48:57.246958-08:00","valueQuantity":{"value":0.2,"unit":"s","system":"http://unitsofmeasure.org","code":"s"}},"request":{"method":"PUT","url":"Observation/202205uscore-observation-example-77"}},{"fullUrl":"http://hapi.fhir.org/baseR4/Observation/202205uscore-observation-example-78","resource":{"resourceType":"Observation","id":"202205uscore-observation-example-78","meta":{"extension":[{"url":"http://hl7.org/fhir/StructureDefinition/instance-name","valueString":"Ahc-Hrsn Item Example 97027-7"},{"url":"http://hl7.org/fhir/StructureDefinition/instance-description","valueMarkdown":"This is a Ahc-Hrsn Item Example 97027-7 (Do you speak a language other than English at home?) for the *US Core Screening Response Observation Profile*"}],"profile":["http://hl7.org/fhir/us/core/StructureDefinition/us-core-observation-sdoh-assessment"],"tag":[{"code":"202201uscore"}]},"status":"final","category":[{"coding":[{"system":"http://hl7.org/fhir/us/core/CodeSystem/us-core-tags","code":"sdoh","display":"SDOH"}]},{"coding":[{"system":"http://terminology.hl7.org/CodeSystem/observation-category","code":"survey","display":"Survey"}]}],"code":{"coding":[{"system":"http://loinc.org","code":"97027-7","display":"Speaks a language other than English at home"}],"text":"Do you speak a language other than English at home?"},"subject":{"reference":"Patient/202205uscore-patient-example-1"},"effectiveDateTime":"2022-03-29T22:38:59.084000+00:00","performer":[{"reference":"Patient/202205uscore-patient-example-1"}],"valueCodeableConcept":{"coding":[{"system":"http://loinc.org","code":"LA32-8","display":"No"}],"text":"No"},"derivedFrom":[{"reference":"QuestionnaireResponse/202205uscore-questionnaireresponse-example-3","display":"US Core QuestionnaireResponse AHC HRSN Screening-Example Example"}]},"request":{"method":"PUT","url":"Observation/202205uscore-observation-example-78"}},{"fullUrl":"http://hapi.fhir.org/baseR4/Observation/202205uscore-observation-example-79","resource":{"resourceType":"Observation","id":"202205uscore-observation-example-79","meta":{"extension":[{"url":"http://hl7.org/fhir/StructureDefinition/instance-name","valueString":"DXA Femur-L ArMass BMD Example"},{"url":"http://hl7.org/fhir/StructureDefinition/instance-description","valueMarkdown":"This is a DXA Femur-L ArMass BMD Example for the *Clinical Test Result Observation Profile*."}],"profile":["http://hl7.org/fhir/us/core/StructureDefinition/us-core-observation-clinical-test"],"tag":[{"code":"202201uscore"}]},"status":"final","category":[{"coding":[{"system":"http://hl7.org/fhir/us/core/CodeSystem/us-core-observation-category","code":"clinical-test","display":"Clinical Test"}],"text":"Clinical Test"}],"code":{"coding":[{"system":"http://loinc.org","code":"80954-1","display":"DXA Femur-L ArMass BMD"}],"text":"DXA Femur-L ArMass BMD"},"subject":{"reference":"Patient/202205uscore-patient-example-1","display":"Amy Shaw"},"encounter":{"display":"Bone Scan"},"effectiveDateTime":"2021-11-10T19:14:41.088720-08:00","valueQuantity":{"value":0.631,"unit":"g/cm2","system":"http://unitsofmeasure.org","code":"g/cm2"}},"request":{"method":"PUT","url":"Observation/202205uscore-observation-example-79"}},{"fullUrl":"http://hapi.fhir.org/baseR4/Observation/202205uscore-observation-example-80","resource":{"resourceType":"Observation","id":"202205uscore-observation-example-80","meta":{"extension":[{"url":"http://hl7.org/fhir/StructureDefinition/instance-name","valueString":"Q-T interval {EKG lead} Example"},{"url":"http://hl7.org/fhir/StructureDefinition/instance-description","valueMarkdown":"This is a Q-T interval {EKG lead} Example for the *Clinical Test Result Observation Profile*."}],"profile":["http://hl7.org/fhir/us/core/StructureDefinition/us-core-observation-clinical-test"],"tag":[{"code":"202201uscore"}]},"status":"final","category":[{"coding":[{"system":"http://hl7.org/fhir/us/core/CodeSystem/us-core-observation-category","code":"clinical-test","display":"Clinical Test"}],"text":"Clinical Test"}],"code":{"coding":[{"system":"http://loinc.org","code":"44975-1","display":"Q-T interval {EKG lead}"}],"text":"Q-T interval {EKG lead}"},"subject":{"reference":"Patient/202205uscore-patient-example-1","display":"Amy Shaw"},"encounter":{"display":"Cardiology Consult"},"effectiveDateTime":"2021-11-10T16:48:57.246958-08:00","valueQuantity":{"value":0.4,"unit":"s","system":"http://unitsofmeasure.org","code":"s"}},"request":{"method":"PUT","url":"Observation/202205uscore-observation-example-80"}},{"fullUrl":"http://hapi.fhir.org/baseR4/Observation/202205uscore-observation-example-81","resource":{"resourceType":"Observation","id":"202205uscore-observation-example-81","meta":{"extension":[{"url":"http://hl7.org/fhir/StructureDefinition/instance-name","valueString":"Ahc-Hrsn Item Example 96780-2"},{"url":"http://hl7.org/fhir/StructureDefinition/instance-description","valueMarkdown":"This is a Ahc-Hrsn Item Example 96780-2 (Do you want help finding or keeping work or a job?) for the *US Core Screening Response Observation Profile*"}],"profile":["http://hl7.org/fhir/us/core/StructureDefinition/us-core-observation-sdoh-assessment"],"tag":[{"code":"202201uscore"}]},"status":"final","category":[{"coding":[{"system":"http://hl7.org/fhir/us/core/CodeSystem/us-core-tags","code":"sdoh","display":"SDOH"}]},{"coding":[{"system":"http://terminology.hl7.org/CodeSystem/observation-category","code":"survey","display":"Survey"}]}],"code":{"coding":[{"system":"http://loinc.org","code":"96780-2","display":"Wants help finding or keeping work or a job"}],"text":"Do you want help finding or keeping work or a job?"},"subject":{"reference":"Patient/202205uscore-patient-example-1"},"effectiveDateTime":"2022-03-29T22:38:59.084000+00:00","performer":[{"reference":"Patient/202205uscore-patient-example-1"}],"valueCodeableConcept":{"coding":[{"system":"http://loinc.org","code":"LA31983-2","display":"I do not need or want help"}],"text":"I do not need or want help"},"derivedFrom":[{"reference":"QuestionnaireResponse/202205uscore-questionnaireresponse-example-3","display":"US Core QuestionnaireResponse AHC HRSN Screening-Example Example"}]},"request":{"method":"PUT","url":"Observation/202205uscore-observation-example-81"}},{"fullUrl":"http://hapi.fhir.org/baseR4/Observation/202205uscore-observation-example-82","resource":{"resourceType":"Observation","id":"202205uscore-observation-example-82","meta":{"extension":[{"url":"http://hl7.org/fhir/StructureDefinition/instance-name","valueString":"BMI Example"},{"url":"http://hl7.org/fhir/StructureDefinition/instance-description","valueMarkdown":"This is a BMI example for the *Vitalsigns Profile*."}],"profile":["http://hl7.org/fhir/us/core/StructureDefinition/us-core-bmi"],"tag":[{"code":"202201uscore"}]},"status":"final","category":[{"coding":[{"system":"http://terminology.hl7.org/CodeSystem/observation-category","code":"vital-signs","display":"Vital Signs"}],"text":"Vital Signs"}],"code":{"coding":[{"system":"http://loinc.org","code":"39156-5","display":"Body mass index (BMI) [Ratio]"}],"text":"BMI"},"subject":{"reference":"Patient/202205uscore-patient-example-1","display":"Amy Shaw"},"encounter":{"display":"GP Visit"},"effectiveDateTime":"1999-07-02","valueQuantity":{"value":16.2,"unit":"kg/m2","system":"http://unitsofmeasure.org","code":"kg/m2"}},"request":{"method":"PUT","url":"Observation/202205uscore-observation-example-82"}},{"fullUrl":"http://hapi.fhir.org/baseR4/Observation/202205uscore-observation-example-83","resource":{"resourceType":"Observation","id":"202205uscore-observation-example-83","meta":{"extension":[{"url":"http://hl7.org/fhir/StructureDefinition/instance-name","valueString":"PRAPARE Panel Example 93043-8"},{"url":"http://hl7.org/fhir/StructureDefinition/instance-description","valueMarkdown":"This is a Prapare Panel Example 93043-8 (Personal characteristics) for the *US Core Screening Response Observation Profile*"}],"profile":["http://hl7.org/fhir/us/core/StructureDefinition/us-core-observation-sdoh-assessment"],"tag":[{"code":"202201uscore"}]},"status":"final","category":[{"coding":[{"system":"http://hl7.org/fhir/us/core/CodeSystem/us-core-tags","code":"sdoh","display":"SDOH"}]},{"coding":[{"system":"http://terminology.hl7.org/CodeSystem/observation-category","code":"survey","display":"Survey"}]}],"code":{"coding":[{"system":"http://loinc.org","code":"93043-8","display":"Personal characteristics [PRAPARE]"}],"text":"Personal characteristics"},"subject":{"reference":"Patient/202205uscore-patient-example-1"},"effectiveDateTime":"2022-03-28T18:30:40-07:00","performer":[{"reference":"Patient/202205uscore-patient-example-1"}],"hasMember":[{"reference":"Observation/202205uscore-observation-example-102"},{"reference":"Observation/202205uscore-observation-example-46"},{"reference":"Observation/202205uscore-observation-example-39"},{"reference":"Observation/202205uscore-observation-example-66"},{"reference":"Observation/202205uscore-observation-example-92"},{"reference":"Observation/202205uscore-observation-example-7"}],"derivedFrom":[{"reference":"QuestionnaireResponse/202205uscore-questionnaireresponse-example-1","display":"US Core QuestionnaireResponse PRAPARE Example"}]},"request":{"method":"PUT","url":"Observation/202205uscore-observation-example-83"}},{"fullUrl":"http://hapi.fhir.org/baseR4/Observation/202205uscore-observation-example-84","resource":{"resourceType":"Observation","id":"202205uscore-observation-example-84","meta":{"extension":[{"url":"http://hl7.org/fhir/StructureDefinition/instance-name","valueString":"Ahc-Hrsn Item Example 76513-1"},{"url":"http://hl7.org/fhir/StructureDefinition/instance-description","valueMarkdown":"This is a Ahc-Hrsn Item Example 76513-1 (How hard is it for you to pay for the very basics like food, housing, medical care, and heating?) for the *US Core Screening Response Observation Profile*"}],"profile":["http://hl7.org/fhir/us/core/StructureDefinition/us-core-observation-sdoh-assessment"],"tag":[{"code":"202201uscore"}]},"status":"final","category":[{"coding":[{"system":"http://hl7.org/fhir/us/core/CodeSystem/us-core-tags","code":"sdoh","display":"SDOH"}]},{"coding":[{"system":"http://terminology.hl7.org/CodeSystem/observation-category","code":"survey","display":"Survey"}]}],"code":{"coding":[{"system":"http://loinc.org","code":"76513-1","display":"How hard is it for you to pay for the very basics like food, housing, medical care, and heating?"}],"text":"How hard is it for you to pay for the very basics like food, housing, medical care, and heating?"},"subject":{"reference":"Patient/202205uscore-patient-example-1"},"effectiveDateTime":"2022-03-29T22:38:59.084000+00:00","performer":[{"reference":"Patient/202205uscore-patient-example-1"}],"valueCodeableConcept":{"coding":[{"system":"http://loinc.org","code":"LA31980-8","display":"Not hard at all"}],"text":"Not hard at all"},"derivedFrom":[{"reference":"QuestionnaireResponse/202205uscore-questionnaireresponse-example-3","display":"US Core QuestionnaireResponse AHC HRSN Screening-Example Example"}]},"request":{"method":"PUT","url":"Observation/202205uscore-observation-example-84"}},{"fullUrl":"http://hapi.fhir.org/baseR4/Observation/202205uscore-observation-example-85","resource":{"resourceType":"Observation","id":"202205uscore-observation-example-85","meta":{"extension":[{"url":"http://hl7.org/fhir/StructureDefinition/instance-name","valueString":"Prapare Panel Example 93039-6"},{"url":"http://hl7.org/fhir/StructureDefinition/instance-description","valueMarkdown":"This is a Prapare Panel Example 93039-6 (Optional additional questions) for the *US Core Screening Response Observation Profile*"}],"profile":["http://hl7.org/fhir/us/core/StructureDefinition/us-core-observation-sdoh-assessment"],"tag":[{"code":"202201uscore"}]},"status":"final","category":[{"coding":[{"system":"http://hl7.org/fhir/us/core/CodeSystem/us-core-tags","code":"sdoh","display":"SDOH"}]},{"coding":[{"system":"http://terminology.hl7.org/CodeSystem/observation-category","code":"survey","display":"Survey"}]}],"code":{"coding":[{"system":"http://loinc.org","code":"93039-6","display":"Optional additional questions [PRAPARE]"}],"text":"Optional additional questions"},"subject":{"reference":"Patient/202205uscore-patient-example-1"},"effectiveDateTime":"2022-03-28T18:30:40-07:00","performer":[{"reference":"Patient/202205uscore-patient-example-1"}],"hasMember":[{"reference":"Observation/202205uscore-observation-example-24"},{"reference":"Observation/202205uscore-observation-example-9"},{"reference":"Observation/202205uscore-observation-example-34"},{"reference":"Observation/202205uscore-observation-example-54"}],"derivedFrom":[{"reference":"QuestionnaireResponse/202205uscore-questionnaireresponse-example-1","display":"US Core QuestionnaireResponse PRAPARE Example"}]},"request":{"method":"PUT","url":"Observation/202205uscore-observation-example-85"}},{"fullUrl":"http://hapi.fhir.org/baseR4/Observation/202205uscore-observation-example-86","resource":{"resourceType":"Observation","id":"202205uscore-observation-example-86","meta":{"extension":[{"url":"http://hl7.org/fhir/StructureDefinition/instance-name","valueString":"Serum Chloride Example"},{"url":"http://hl7.org/fhir/StructureDefinition/instance-description","valueMarkdown":"This is a serum chloride example for the *US Core Observation Lab Profile*."}],"versionId":"950","lastUpdated":"2016-03-09T15:29:57.427000+00:00","profile":["http://hl7.org/fhir/us/core/StructureDefinition/us-core-observation-lab"],"tag":[{"code":"202201uscore"}]},"status":"final","category":[{"coding":[{"system":"http://terminology.hl7.org/CodeSystem/observation-category","code":"laboratory","display":"Laboratory"}],"text":"Laboratory"}],"code":{"coding":[{"system":"http://loinc.org","code":"2075-0","display":"Chloride SerPl-sCnc"}],"text":"Chloride SerPl-sCnc"},"subject":{"reference":"Patient/202205uscore-patient-example-1","display":"Amy Shaw"},"effectiveDateTime":"2005-07-05","valueQuantity":{"value":105.0,"unit":"mmol/L","system":"http://unitsofmeasure.org"},"referenceRange":[{"low":{"value":95.0,"unit":"mmol/L","system":"http://unitsofmeasure.org","code":"mmol/L"},"high":{"value":105.0,"unit":"mmol/L","system":"http://unitsofmeasure.org","code":"mmol/L"},"type":{"coding":[{"system":"http://terminology.hl7.org/CodeSystem/referencerange-meaning","code":"normal","display":"Normal Range"}],"text":"Normal Range"}}]},"request":{"method":"PUT","url":"Observation/202205uscore-observation-example-86"}},{"fullUrl":"http://hapi.fhir.org/baseR4/Observation/202205uscore-observation-example-87","resource":{"resourceType":"Observation","id":"202205uscore-observation-example-87","meta":{"extension":[{"url":"http://hl7.org/fhir/StructureDefinition/instance-name","valueString":"Hvs Item Example 88122-7"},{"url":"http://hl7.org/fhir/StructureDefinition/instance-description","valueMarkdown":"This is a Hvs Item Example 88122-7 ((I/We) worried whether (my/our) food would run out before (I/we) got money to buy more.) for the *US Core Screening Response Observation Profile*"}],"profile":["http://hl7.org/fhir/us/core/StructureDefinition/us-core-observation-sdoh-assessment"],"tag":[{"code":"202201uscore"}]},"status":"final","category":[{"coding":[{"system":"http://hl7.org/fhir/us/core/CodeSystem/us-core-tags","code":"sdoh","display":"SDOH"}]},{"coding":[{"system":"http://terminology.hl7.org/CodeSystem/observation-category","code":"survey","display":"Survey"}]}],"code":{"coding":[{"system":"http://loinc.org","code":"88122-7","display":"(I/We) worried whether (my/our) food would run out before (I/we) got money to buy more."}],"text":"(I/We) worried whether (my/our) food would run out before (I/we) got money to buy more."},"subject":{"reference":"Patient/202205uscore-patient-example-1"},"effectiveDateTime":"2020-09-10T21:56:54.671000+00:00","performer":[{"reference":"Patient/202205uscore-patient-example-1"}],"valueCodeableConcept":{"coding":[{"system":"http://loinc.org","code":"LA28397-0","display":"Often true"}],"text":"Often true"},"derivedFrom":[{"reference":"QuestionnaireResponse/202205uscore-questionnaireresponse-example-4","display":"US Core QuestionnaireResponse Hunger Vital Sign Example"}]},"request":{"method":"PUT","url":"Observation/202205uscore-observation-example-87"}},{"fullUrl":"http://hapi.fhir.org/baseR4/Observation/202205uscore-observation-example-88","resource":{"resourceType":"Observation","id":"202205uscore-observation-example-88","meta":{"extension":[{"url":"http://hl7.org/fhir/StructureDefinition/instance-name","valueString":"Hemoglobin Example"},{"url":"http://hl7.org/fhir/StructureDefinition/instance-description","valueMarkdown":"This is a hemoglobin example for the *US Core Observation Lab Profile*."}],"versionId":"1046","lastUpdated":"2016-03-09T15:29:57.818000+00:00","profile":["http://hl7.org/fhir/us/core/StructureDefinition/us-core-observation-lab"],"tag":[{"code":"202201uscore"}]},"status":"final","category":[{"coding":[{"system":"http://terminology.hl7.org/CodeSystem/observation-category","code":"laboratory","display":"Laboratory"}],"text":"Laboratory"}],"code":{"coding":[{"system":"http://loinc.org","code":"718-7","display":"Hgb Bld-mCnc"}],"text":"Hgb Bld-mCnc"},"subject":{"reference":"Patient/202205uscore-patient-example-1","display":"Amy Shaw"},"effectiveDateTime":"2005-07-05","valueQuantity":{"value":17.0,"unit":"g/dL","system":"http://unitsofmeasure.org"},"referenceRange":[{"low":{"value":16.5,"unit":"g/dL","system":"http://unitsofmeasure.org","code":"g/dL"},"high":{"value":21.5,"unit":"g/dL","system":"http://unitsofmeasure.org","code":"g/dL"},"type":{"coding":[{"system":"http://terminology.hl7.org/CodeSystem/referencerange-meaning","code":"normal","display":"Normal Range"}],"text":"Normal Range"}}]},"request":{"method":"PUT","url":"Observation/202205uscore-observation-example-88"}},{"fullUrl":"http://hapi.fhir.org/baseR4/Observation/202205uscore-observation-example-89","resource":{"resourceType":"Observation","id":"202205uscore-observation-example-89","meta":{"extension":[{"url":"http://hl7.org/fhir/StructureDefinition/instance-name","valueString":"Capillary refill Time Nail Bed Example"},{"url":"http://hl7.org/fhir/StructureDefinition/instance-description","valueMarkdown":"This is a Capillary refill Time Nail Bed Example for the *Clinical Test Result Observation Profile*."}],"profile":["http://hl7.org/fhir/us/core/StructureDefinition/us-core-observation-clinical-test"],"tag":[{"code":"202201uscore"}]},"status":"final","category":[{"coding":[{"system":"http://hl7.org/fhir/us/core/CodeSystem/us-core-observation-category","code":"clinical-test","display":"Clinical Test"}],"text":"Clinical Test"}],"code":{"coding":[{"system":"http://loinc.org","code":"44963-7","display":"Capillary refill Time Nail Bed"}],"text":"Capillary refill Time Nail Bed"},"subject":{"reference":"Patient/202205uscore-patient-example-1","display":"Amy Shaw"},"encounter":{"display":"Cardiology Consult"},"effectiveDateTime":"2021-11-10T16:48:57.246958-08:00","valueQuantity":{"value":1,"unit":"s","system":"http://unitsofmeasure.org","code":"s"}},"request":{"method":"PUT","url":"Observation/202205uscore-observation-example-89"}},{"fullUrl":"http://hapi.fhir.org/baseR4/Observation/202205uscore-observation-example-90","resource":{"resourceType":"Observation","id":"202205uscore-observation-example-90","meta":{"extension":[{"url":"http://hl7.org/fhir/StructureDefinition/instance-name","valueString":"BP Data Absent Example"},{"url":"http://hl7.org/fhir/StructureDefinition/instance-description","valueMarkdown":"This is a bp data absent example for the *Vitalsigns Profile* showing how to reprsesent blood pressure with a missing diastolic measurement."}],"profile":["http://hl7.org/fhir/us/core/StructureDefinition/us-core-blood-pressure"],"tag":[{"code":"202201uscore"}]},"status":"final","category":[{"coding":[{"system":"http://terminology.hl7.org/CodeSystem/observation-category","code":"vital-signs","display":"Vital Signs"}],"text":"Vital Signs"}],"code":{"coding":[{"system":"http://loinc.org","code":"85354-9","display":"Blood pressure panel with all children optional"}],"text":"Blood pressure systolic and diastolic"},"subject":{"reference":"Patient/202205uscore-patient-example-1","display":"Amy Shaw"},"encounter":{"reference":"Encounter/202205uscore-encounter-example-2"},"effectiveDateTime":"1999-07-02","component":[{"code":{"coding":[{"system":"http://loinc.org","code":"8480-6","display":"Systolic blood pressure"}],"text":"Systolic blood pressure"},"valueQuantity":{"value":109,"unit":"mmHg","system":"http://unitsofmeasure.org","code":"mm[Hg]"}},{"code":{"coding":[{"system":"http://loinc.org","code":"8462-4","display":"Diastolic blood pressure"}],"text":"Diastolic blood pressure"},"dataAbsentReason":{"coding":[{"system":"http://terminology.hl7.org/CodeSystem/data-absent-reason","code":"unknown","display":"Unknown"}],"text":"Unknown"}}]},"request":{"method":"PUT","url":"Observation/202205uscore-observation-example-90"}},{"fullUrl":"http://hapi.fhir.org/baseR4/Observation/202205uscore-observation-example-91","resource":{"resourceType":"Observation","id":"202205uscore-observation-example-91","meta":{"extension":[{"url":"http://hl7.org/fhir/StructureDefinition/instance-name","valueString":"Prapare Panel Example 93042-0"},{"url":"http://hl7.org/fhir/StructureDefinition/instance-description","valueMarkdown":"This is a Prapare Panel Example 93042-0 (Family and home) for the *US Core Screening Response Observation Profile*"}],"profile":["http://hl7.org/fhir/us/core/StructureDefinition/us-core-observation-sdoh-assessment"],"tag":[{"code":"202201uscore"}]},"status":"final","category":[{"coding":[{"system":"http://hl7.org/fhir/us/core/CodeSystem/us-core-tags","code":"sdoh","display":"SDOH"}]},{"coding":[{"system":"http://terminology.hl7.org/CodeSystem/observation-category","code":"survey","display":"Survey"}]}],"code":{"coding":[{"system":"http://loinc.org","code":"93042-0","display":"Family and home [PRAPARE]"}],"text":"Family and home"},"subject":{"reference":"Patient/202205uscore-patient-example-1"},"effectiveDateTime":"2022-03-28T18:30:40-07:00","performer":[{"reference":"Patient/202205uscore-patient-example-1"}],"hasMember":[{"reference":"Observation/202205uscore-observation-example-56"},{"reference":"Observation/202205uscore-observation-example-63"},{"reference":"Observation/202205uscore-observation-example-75"},{"reference":"Observation/202205uscore-observation-example-40"}],"derivedFrom":[{"reference":"QuestionnaireResponse/202205uscore-questionnaireresponse-example-1","display":"US Core QuestionnaireResponse PRAPARE Example"}]},"request":{"method":"PUT","url":"Observation/202205uscore-observation-example-91"}},{"fullUrl":"http://hapi.fhir.org/baseR4/Observation/202205uscore-observation-example-92","resource":{"resourceType":"Observation","id":"202205uscore-observation-example-92","meta":{"extension":[{"url":"http://hl7.org/fhir/StructureDefinition/instance-name","valueString":"Prapare Item Example 93034-7"},{"url":"http://hl7.org/fhir/StructureDefinition/instance-description","valueMarkdown":"This is a Prapare Item Example 93034-7 (Have you been discharged from the armed forces of the United States?) for the *US Core Screening Response Observation Profile*"}],"profile":["http://hl7.org/fhir/us/core/StructureDefinition/us-core-observation-sdoh-assessment"],"tag":[{"code":"202201uscore"}]},"status":"final","category":[{"coding":[{"system":"http://hl7.org/fhir/us/core/CodeSystem/us-core-tags","code":"sdoh","display":"SDOH"}]},{"coding":[{"system":"http://terminology.hl7.org/CodeSystem/observation-category","code":"survey","display":"Survey"}]}],"code":{"coding":[{"system":"http://loinc.org","code":"93034-7","display":"Have you been discharged from the armed forces of the United States?"}],"text":"Have you been discharged from the armed forces of the United States?"},"subject":{"reference":"Patient/202205uscore-patient-example-1"},"effectiveDateTime":"2022-03-28T18:30:40-07:00","performer":[{"reference":"Patient/202205uscore-patient-example-1"}],"valueCodeableConcept":{"coding":[{"system":"http://loinc.org","code":"LA32-8","display":"No"}],"text":"No"},"derivedFrom":[{"reference":"QuestionnaireResponse/202205uscore-questionnaireresponse-example-1","display":"US Core QuestionnaireResponse PRAPARE Example"}]},"request":{"method":"PUT","url":"Observation/202205uscore-observation-example-92"}},{"fullUrl":"http://hapi.fhir.org/baseR4/Observation/202205uscore-observation-example-93","resource":{"resourceType":"Observation","id":"202205uscore-observation-example-93","meta":{"extension":[{"url":"http://hl7.org/fhir/StructureDefinition/instance-name","valueString":"DXA Hip-L T-score BMD Example"},{"url":"http://hl7.org/fhir/StructureDefinition/instance-description","valueMarkdown":"This is a DXA Hip-L T-score BMD Example for the *Clinical Test Result Observation Profile*."}],"profile":["http://hl7.org/fhir/us/core/StructureDefinition/us-core-observation-clinical-test"],"tag":[{"code":"202201uscore"}]},"status":"final","category":[{"coding":[{"system":"http://hl7.org/fhir/us/core/CodeSystem/us-core-observation-category","code":"clinical-test","display":"Clinical Test"}],"text":"Clinical Test"}],"code":{"coding":[{"system":"http://loinc.org","code":"80946-7","display":"DXA Hip-L T-score BMD"}],"text":"DXA Hip-L T-score BMD"},"subject":{"reference":"Patient/202205uscore-patient-example-1","display":"Amy Shaw"},"encounter":{"display":"Bone Scan"},"effectiveDateTime":"2021-11-10T19:14:41.088720-08:00","valueQuantity":{"value":-1.62,"unit":"T-Score","system":"http://unitsofmeasure.org","code":"{T-Score}"}},"request":{"method":"PUT","url":"Observation/202205uscore-observation-example-93"}},{"fullUrl":"http://hapi.fhir.org/baseR4/Observation/202205uscore-observation-example-94","resource":{"resourceType":"Observation","id":"202205uscore-observation-example-94","meta":{"extension":[{"url":"http://hl7.org/fhir/StructureDefinition/instance-name","valueString":"Ahc-Hrsn Item Example 68516-4"},{"url":"http://hl7.org/fhir/StructureDefinition/instance-description","valueMarkdown":"This is a Ahc-Hrsn Item Example 68516-4 (On average, how many minutes did you usually spend exercising at this level on one of those days?) for the *US Core Screening Response Observation Profile*"}],"profile":["http://hl7.org/fhir/us/core/StructureDefinition/us-core-observation-sdoh-assessment"],"tag":[{"code":"202201uscore"}]},"status":"final","category":[{"coding":[{"system":"http://hl7.org/fhir/us/core/CodeSystem/us-core-tags","code":"sdoh","display":"SDOH"}]},{"coding":[{"system":"http://terminology.hl7.org/CodeSystem/observation-category","code":"survey","display":"Survey"}]}],"code":{"coding":[{"system":"http://loinc.org","code":"68516-4","display":"On those days that you engage in moderate to strenuous exercise, how many minutes, on average, do you exercise"}],"text":"On average, how many minutes did you usually spend exercising at this level on one of those days?"},"subject":{"reference":"Patient/202205uscore-patient-example-1"},"effectiveDateTime":"2022-03-29T22:38:59.084000+00:00","performer":[{"reference":"Patient/202205uscore-patient-example-1"}],"valueCodeableConcept":{"coding":[{"system":"http://loinc.org","code":"LA28853-2","display":"60"}],"text":"60"},"derivedFrom":[{"reference":"QuestionnaireResponse/202205uscore-questionnaireresponse-example-3","display":"US Core QuestionnaireResponse AHC HRSN Screening-Example Example"}]},"request":{"method":"PUT","url":"Observation/202205uscore-observation-example-94"}},{"fullUrl":"http://hapi.fhir.org/baseR4/Observation/202205uscore-observation-example-95","resource":{"resourceType":"Observation","id":"202205uscore-observation-example-95","meta":{"extension":[{"url":"http://hl7.org/fhir/StructureDefinition/instance-name","valueString":"DXA Femur-L Z-score BMD Example"},{"url":"http://hl7.org/fhir/StructureDefinition/instance-description","valueMarkdown":"This is a DXA Femur-L Z-score BMD Example for the *Clinical Test Result Observation Profile*."}],"profile":["http://hl7.org/fhir/us/core/StructureDefinition/us-core-observation-clinical-test"],"tag":[{"code":"202201uscore"}]},"status":"final","category":[{"coding":[{"system":"http://hl7.org/fhir/us/core/CodeSystem/us-core-observation-category","code":"clinical-test","display":"Clinical Test"}],"text":"Clinical Test"}],"code":{"coding":[{"system":"http://loinc.org","code":"80940-0","display":"DXA Femur-L Z-score BMD"}],"text":"DXA Femur-L Z-score BMD"},"subject":{"reference":"Patient/202205uscore-patient-example-1","display":"Amy Shaw"},"encounter":{"display":"Bone Scan"},"effectiveDateTime":"2021-11-10T19:14:41.088720-08:00","valueQuantity":{"value":0.05,"unit":"Z-Score","system":"http://unitsofmeasure.org","code":"{Z-Score}"}},"request":{"method":"PUT","url":"Observation/202205uscore-observation-example-95"}},{"fullUrl":"http://hapi.fhir.org/baseR4/Observation/202205uscore-observation-example-96","resource":{"resourceType":"Observation","id":"202205uscore-observation-example-96","meta":{"extension":[{"url":"http://hl7.org/fhir/StructureDefinition/instance-name","valueString":"Ahc-Hrsn Item Example 69861-3"},{"url":"http://hl7.org/fhir/StructureDefinition/instance-description","valueMarkdown":"This is a Ahc-Hrsn Item Example 69861-3 (Because of a physical, mental, or emotional condition, do you have difficulty doing errands alone such as visiting a physician's office or shopping?) for the *US Core Screening Response Observation Profile*"}],"profile":["http://hl7.org/fhir/us/core/StructureDefinition/us-core-observation-sdoh-assessment"],"tag":[{"code":"202201uscore"}]},"status":"final","category":[{"coding":[{"system":"http://hl7.org/fhir/us/core/CodeSystem/us-core-tags","code":"sdoh","display":"SDOH"}]},{"coding":[{"system":"http://terminology.hl7.org/CodeSystem/observation-category","code":"survey","display":"Survey"}]}],"code":{"coding":[{"system":"http://loinc.org","code":"69861-3","display":"Because of a physical, mental, or emotional condition, do you have difficulty doing errands alone such as visiting a physician's office or shopping?"}],"text":"Because of a physical, mental, or emotional condition, do you have difficulty doing errands alone such as visiting a physician's office or shopping?"},"subject":{"reference":"Patient/202205uscore-patient-example-1"},"effectiveDateTime":"2022-03-29T22:38:59.084000+00:00","performer":[{"reference":"Patient/202205uscore-patient-example-1"}],"valueCodeableConcept":{"coding":[{"system":"http://loinc.org","code":"LA32-8","display":"No"}],"text":"No"},"derivedFrom":[{"reference":"QuestionnaireResponse/202205uscore-questionnaireresponse-example-3","display":"US Core QuestionnaireResponse AHC HRSN Screening-Example Example"}]},"request":{"method":"PUT","url":"Observation/202205uscore-observation-example-96"}},{"fullUrl":"http://hapi.fhir.org/baseR4/Observation/202205uscore-observation-example-97","resource":{"resourceType":"Observation","id":"202205uscore-observation-example-97","meta":{"extension":[{"url":"http://hl7.org/fhir/StructureDefinition/instance-name","valueString":"Serum Total Bilirubin Example"},{"url":"http://hl7.org/fhir/StructureDefinition/instance-description","valueMarkdown":"This is a serum total bilirubin example for the *US Core Observation Lab Profile*."}],"versionId":"1364","lastUpdated":"2016-03-09T15:29:59.089000+00:00","profile":["http://hl7.org/fhir/us/core/StructureDefinition/us-core-observation-lab"],"tag":[{"code":"202201uscore"}]},"status":"final","category":[{"coding":[{"system":"http://terminology.hl7.org/CodeSystem/observation-category","code":"laboratory","display":"Laboratory"}],"text":"Laboratory"}],"code":{"coding":[{"system":"http://loinc.org","code":"1975-2","display":"Bilirub SerPl-mCnc"}],"text":"Bilirub SerPl-mCnc"},"subject":{"reference":"Patient/202205uscore-patient-example-1","display":"Amy Shaw"},"effectiveDateTime":"2005-07-07","valueQuantity":{"value":8.6,"unit":"mg/dL","system":"http://unitsofmeasure.org"},"referenceRange":[{"low":{"value":2.0,"unit":"mg/dL","system":"http://unitsofmeasure.org","code":"mg/dL"},"high":{"value":7.0,"unit":"mg/dL","system":"http://unitsofmeasure.org","code":"mg/dL"},"type":{"coding":[{"system":"http://terminology.hl7.org/CodeSystem/referencerange-meaning","code":"normal","display":"Normal Range"}],"text":"Normal Range"}}]},"request":{"method":"PUT","url":"Observation/202205uscore-observation-example-97"}},{"fullUrl":"http://hapi.fhir.org/baseR4/Observation/202205uscore-observation-example-98","resource":{"resourceType":"Observation","id":"202205uscore-observation-example-98","meta":{"extension":[{"url":"http://hl7.org/fhir/StructureDefinition/instance-name","valueString":"Weight Example"},{"url":"http://hl7.org/fhir/StructureDefinition/instance-description","valueMarkdown":"This is a weight example for the *Vitalsigns Profile*."}],"profile":["http://hl7.org/fhir/us/core/StructureDefinition/us-core-body-weight"],"tag":[{"code":"202201uscore"}]},"status":"final","category":[{"coding":[{"system":"http://terminology.hl7.org/CodeSystem/observation-category","code":"vital-signs","display":"Vital Signs"}],"text":"Vital Signs"}],"code":{"coding":[{"system":"http://loinc.org","code":"29463-7","display":"Body Weight"}],"text":"weight"},"subject":{"reference":"Patient/202205uscore-patient-example-1","display":"Amy Shaw"},"encounter":{"display":"GP Visit"},"effectiveDateTime":"1999-07-02","valueQuantity":{"value":20.09414,"unit":"kg","system":"http://unitsofmeasure.org","code":"kg"}},"request":{"method":"PUT","url":"Observation/202205uscore-observation-example-98"}},{"fullUrl":"http://hapi.fhir.org/baseR4/Observation/202205uscore-observation-example-99","resource":{"resourceType":"Observation","id":"202205uscore-observation-example-99","meta":{"extension":[{"url":"http://hl7.org/fhir/StructureDefinition/instance-name","valueString":"Pediatric BMI Example"},{"url":"http://hl7.org/fhir/StructureDefinition/instance-description","valueMarkdown":"This is a pediatric BMI example for the *Pediatric BMI For Age Profile*."}],"profile":["http://hl7.org/fhir/us/core/StructureDefinition/pediatric-bmi-for-age"],"tag":[{"code":"202201uscore"}]},"status":"final","category":[{"coding":[{"system":"http://terminology.hl7.org/CodeSystem/observation-category","code":"vital-signs","display":"Vital Signs"}],"text":"Vital Signs"}],"code":{"coding":[{"system":"http://loinc.org","code":"59576-9","display":"Body mass index (BMI) [Percentile] Per age and sex"}],"text":"BMI"},"subject":{"reference":"Patient/202205uscore-patient-example-3","display":"Child Example"},"encounter":{"display":"GP Visit"},"effectiveDateTime":"2019-05-04T12:12:29-07:00","valueQuantity":{"value":65,"unit":"%","system":"http://unitsofmeasure.org","code":"%"},"note":[{"text":"CDC Males, 2-20 years Chart"}]},"request":{"method":"PUT","url":"Observation/202205uscore-observation-example-99"}},{"fullUrl":"http://hapi.fhir.org/baseR4/Observation/202205uscore-observation-example-100","resource":{"resourceType":"Observation","id":"202205uscore-observation-example-100","meta":{"extension":[{"url":"http://hl7.org/fhir/StructureDefinition/instance-name","valueString":"Erythrocytes Example"},{"url":"http://hl7.org/fhir/StructureDefinition/instance-description","valueMarkdown":"This is a erythrocytes example for the *US Core Observation Lab Profile*."}],"versionId":"1189","lastUpdated":"2016-03-09T15:29:58.419000+00:00","profile":["http://hl7.org/fhir/us/core/StructureDefinition/us-core-observation-lab"],"tag":[{"code":"202201uscore"}]},"status":"final","category":[{"coding":[{"system":"http://terminology.hl7.org/CodeSystem/observation-category","code":"laboratory","display":"Laboratory"}],"text":"Laboratory"}],"code":{"coding":[{"system":"http://loinc.org","code":"789-8","display":"RBC # Bld Auto"}],"text":"RBC # Bld Auto"},"subject":{"reference":"Patient/202205uscore-patient-example-1","display":"Amy Shaw"},"effectiveDateTime":"2005-07-05","valueQuantity":{"value":4.58,"unit":"10*6/uL","system":"http://unitsofmeasure.org"},"referenceRange":[{"low":{"value":4.1,"unit":"10*6/uL","system":"http://unitsofmeasure.org","code":"10*6/uL"},"high":{"value":6.1,"unit":"10*6/uL","system":"http://unitsofmeasure.org","code":"10*6/uL"},"type":{"coding":[{"system":"http://terminology.hl7.org/CodeSystem/referencerange-meaning","code":"normal","display":"Normal Range"}],"text":"Normal Range"}}]},"request":{"method":"PUT","url":"Observation/202205uscore-observation-example-100"}},{"fullUrl":"http://hapi.fhir.org/baseR4/Observation/202205uscore-observation-example-101","resource":{"resourceType":"Observation","id":"202205uscore-observation-example-101","meta":{"extension":[{"url":"http://hl7.org/fhir/StructureDefinition/instance-name","valueString":"Ahc-Hrsn Item Example 44255-8"},{"url":"http://hl7.org/fhir/StructureDefinition/instance-description","valueMarkdown":"This is a Ahc-Hrsn Item Example 44255-8 (Feeling down, depressed, or hopeless?) for the *US Core Screening Response Observation Profile*"}],"profile":["http://hl7.org/fhir/us/core/StructureDefinition/us-core-observation-sdoh-assessment"],"tag":[{"code":"202201uscore"}]},"status":"final","category":[{"coding":[{"system":"http://hl7.org/fhir/us/core/CodeSystem/us-core-tags","code":"sdoh","display":"SDOH"}]},{"coding":[{"system":"http://terminology.hl7.org/CodeSystem/observation-category","code":"survey","display":"Survey"}]}],"code":{"coding":[{"system":"http://loinc.org","code":"44255-8","display":"Feeling down, depressed, or hopeless in last 2 weeks"}],"text":"Feeling down, depressed, or hopeless?"},"subject":{"reference":"Patient/202205uscore-patient-example-1"},"effectiveDateTime":"2022-03-29T22:38:59.084000+00:00","performer":[{"reference":"Patient/202205uscore-patient-example-1"}],"valueCodeableConcept":{"coding":[{"system":"http://loinc.org","code":"LA6568-5","display":"Not at all"}],"text":"Not at all"},"derivedFrom":[{"reference":"QuestionnaireResponse/202205uscore-questionnaireresponse-example-3","display":"US Core QuestionnaireResponse AHC HRSN Screening-Example Example"}]},"request":{"method":"PUT","url":"Observation/202205uscore-observation-example-101"}},{"fullUrl":"http://hapi.fhir.org/baseR4/Observation/202205uscore-observation-example-102","resource":{"resourceType":"Observation","id":"202205uscore-observation-example-102","meta":{"extension":[{"url":"http://hl7.org/fhir/StructureDefinition/instance-name","valueString":"Prapare Item Example 56051-6"},{"url":"http://hl7.org/fhir/StructureDefinition/instance-description","valueMarkdown":"This is a Prapare Item Example 56051-6 (Do you consider yourself Hispanic/Latino?) for the *US Core Screening Response Observation Profile*"}],"profile":["http://hl7.org/fhir/us/core/StructureDefinition/us-core-observation-sdoh-assessment"],"tag":[{"code":"202201uscore"}]},"status":"final","category":[{"coding":[{"system":"http://hl7.org/fhir/us/core/CodeSystem/us-core-tags","code":"sdoh","display":"SDOH"}]},{"coding":[{"system":"http://terminology.hl7.org/CodeSystem/observation-category","code":"survey","display":"Survey"}]}],"code":{"coding":[{"system":"http://loinc.org","code":"56051-6","display":"Do you consider yourself Hispanic/Latino?"}],"text":"Do you consider yourself Hispanic/Latino?"},"subject":{"reference":"Patient/202205uscore-patient-example-1"},"effectiveDateTime":"2022-03-28T18:30:40-07:00","performer":[{"reference":"Patient/202205uscore-patient-example-1"}],"valueCodeableConcept":{"coding":[{"system":"http://loinc.org","code":"LA32-8","display":"No"}],"text":"No"},"derivedFrom":[{"reference":"QuestionnaireResponse/202205uscore-questionnaireresponse-example-1","display":"US Core QuestionnaireResponse PRAPARE Example"}]},"request":{"method":"PUT","url":"Observation/202205uscore-observation-example-102"}},{"fullUrl":"http://hapi.fhir.org/baseR4/Observation/202205uscore-observation-example-103","resource":{"resourceType":"Observation","id":"202205uscore-observation-example-103","meta":{"extension":[{"url":"http://hl7.org/fhir/StructureDefinition/instance-name","valueString":"BUN Example"},{"url":"http://hl7.org/fhir/StructureDefinition/instance-description","valueMarkdown":"This is a BUN example for the *US Core Observation Lab Profile*."}],"versionId":"1237","lastUpdated":"2016-03-09T15:29:58.597000+00:00","profile":["http://hl7.org/fhir/us/core/StructureDefinition/us-core-observation-lab"],"tag":[{"code":"202201uscore"}]},"status":"final","category":[{"coding":[{"system":"http://terminology.hl7.org/CodeSystem/observation-category","code":"laboratory","display":"Laboratory"}],"text":"Laboratory"}],"code":{"coding":[{"system":"http://loinc.org","code":"3094-0","display":"BUN SerPl-mCnc"}],"text":"BUN SerPl-mCnc"},"subject":{"reference":"Patient/202205uscore-patient-example-1","display":"Amy Shaw"},"effectiveDateTime":"2005-07-05","valueQuantity":{"value":10.0,"unit":"mg/dL","system":"http://unitsofmeasure.org"},"referenceRange":[{"low":{"value":5.0,"unit":"mg/dL","system":"http://unitsofmeasure.org","code":"mg/dL"},"high":{"value":20.0,"unit":"mg/dL","system":"http://unitsofmeasure.org","code":"mg/dL"},"type":{"coding":[{"system":"http://terminology.hl7.org/CodeSystem/referencerange-meaning","code":"normal","display":"Normal Range"}],"text":"Normal Range"}}]},"request":{"method":"PUT","url":"Observation/202205uscore-observation-example-103"}},{"fullUrl":"http://hapi.fhir.org/baseR4/Observation/202205uscore-observation-example-104","resource":{"resourceType":"Observation","id":"202205uscore-observation-example-104","meta":{"extension":[{"url":"http://hl7.org/fhir/StructureDefinition/instance-name","valueString":"Hvs Panel Example 88121-9"},{"url":"http://hl7.org/fhir/StructureDefinition/instance-description","valueMarkdown":"This is a Hvs Panel Example 88121-9 (Hunger Vital Sign [HVS]) for the *US Core Screening Response Observation Profile*"}],"profile":["http://hl7.org/fhir/us/core/StructureDefinition/us-core-observation-sdoh-assessment"],"tag":[{"code":"202201uscore"}]},"status":"final","category":[{"coding":[{"system":"http://hl7.org/fhir/us/core/CodeSystem/us-core-tags","code":"sdoh","display":"SDOH"}]},{"coding":[{"system":"http://terminology.hl7.org/CodeSystem/observation-category","code":"survey","display":"Survey"}]}],"code":{"coding":[{"system":"http://loinc.org","code":"88121-9","display":"Hunger Vital Sign [HVS]"}],"text":"Hunger Vital Sign [HVS]"},"subject":{"reference":"Patient/202205uscore-patient-example-1"},"effectiveDateTime":"2020-09-10T21:56:54.671000+00:00","performer":[{"reference":"Patient/202205uscore-patient-example-1"}],"hasMember":[{"reference":"Observation/202205uscore-observation-example-87"},{"reference":"Observation/202205uscore-observation-example-52"},{"reference":"Observation/202205uscore-observation-example-11"}],"derivedFrom":[{"reference":"QuestionnaireResponse/202205uscore-questionnaireresponse-example-4","display":"US Core QuestionnaireResponse Hunger Vital Sign Example"}]},"request":{"method":"PUT","url":"Observation/202205uscore-observation-example-104"}},{"fullUrl":"http://hapi.fhir.org/baseR4/Observation/202205uscore-observation-example-105","resource":{"resourceType":"Observation","id":"202205uscore-observation-example-105","meta":{"extension":[{"url":"http://hl7.org/fhir/StructureDefinition/instance-name","valueString":"Serum CO2 Example"},{"url":"http://hl7.org/fhir/StructureDefinition/instance-description","valueMarkdown":"This is a serum CO2 example for the *US Core Observation Lab Profile*."}],"versionId":"962","lastUpdated":"2016-03-09T15:29:57.477000+00:00","profile":["http://hl7.org/fhir/us/core/StructureDefinition/us-core-observation-lab"],"tag":[{"code":"202201uscore"}]},"status":"final","category":[{"coding":[{"system":"http://terminology.hl7.org/CodeSystem/observation-category","code":"laboratory","display":"Laboratory"}],"text":"Laboratory"}],"code":{"coding":[{"system":"http://loinc.org","code":"2028-9","display":"CO2 SerPl-sCnc"}],"text":"CO2 SerPl-sCnc"},"subject":{"reference":"Patient/202205uscore-patient-example-1","display":"Amy Shaw"},"effectiveDateTime":"2005-07-05","valueQuantity":{"value":24.0,"unit":"mmol/L","system":"http://unitsofmeasure.org"},"referenceRange":[{"low":{"value":22.0,"unit":"mmol/L","system":"http://unitsofmeasure.org","code":"mmol/L"},"high":{"value":29.0,"unit":"mmol/L","system":"http://unitsofmeasure.org","code":"mmol/L"},"type":{"coding":[{"system":"http://terminology.hl7.org/CodeSystem/referencerange-meaning","code":"normal","display":"Normal Range"}],"text":"Normal Range"}}]},"request":{"method":"PUT","url":"Observation/202205uscore-observation-example-105"}},{"fullUrl":"http://hapi.fhir.org/baseR4/Observation/202205uscore-observation-example-106","resource":{"resourceType":"Observation","id":"202205uscore-observation-example-106","meta":{"extension":[{"url":"http://hl7.org/fhir/StructureDefinition/instance-name","valueString":"DXA Hip-L Z-score BMD Example"},{"url":"http://hl7.org/fhir/StructureDefinition/instance-description","valueMarkdown":"This is a DXA Hip-L Z-score BMD Example for the *Clinical Test Result Observation Profile*."}],"profile":["http://hl7.org/fhir/us/core/StructureDefinition/us-core-observation-clinical-test"],"tag":[{"code":"202201uscore"}]},"status":"final","category":[{"coding":[{"system":"http://hl7.org/fhir/us/core/CodeSystem/us-core-observation-category","code":"clinical-test","display":"Clinical Test"}],"text":"Clinical Test"}],"code":{"coding":[{"system":"http://loinc.org","code":"80938-4","display":"DXA Hip-L Z-score BMD"}],"text":"DXA Hip-L Z-score BMD"},"subject":{"reference":"Patient/202205uscore-patient-example-1","display":"Amy Shaw"},"encounter":{"display":"Bone Scan"},"effectiveDateTime":"2021-11-10T19:14:41.088720-08:00","valueQuantity":{"value":-0.19,"unit":"Z-Score","system":"http://unitsofmeasure.org","code":"{Z-Score}"}},"request":{"method":"PUT","url":"Observation/202205uscore-observation-example-106"}},{"fullUrl":"http://hapi.fhir.org/baseR4/Observation/202205uscore-observation-example-107","resource":{"resourceType":"Observation","id":"202205uscore-observation-example-107","meta":{"extension":[{"url":"http://hl7.org/fhir/StructureDefinition/instance-name","valueString":"MCHC Example"},{"url":"http://hl7.org/fhir/StructureDefinition/instance-description","valueMarkdown":"This is a MCHC example for the *US Core Observation Lab Profile*."}],"versionId":"879","lastUpdated":"2016-03-09T15:29:57.124000+00:00","profile":["http://hl7.org/fhir/us/core/StructureDefinition/us-core-observation-lab"],"tag":[{"code":"202201uscore"}]},"status":"final","category":[{"coding":[{"system":"http://terminology.hl7.org/CodeSystem/observation-category","code":"laboratory","display":"Laboratory"}],"text":"Laboratory"}],"code":{"coding":[{"system":"http://loinc.org","code":"786-4","display":"MCHC RBC Auto-mCnc"}],"text":"MCHC RBC Auto-mCnc"},"subject":{"reference":"Patient/202205uscore-patient-example-1","display":"Amy Shaw"},"effectiveDateTime":"2005-07-05","valueQuantity":{"value":34.7,"unit":"g/dL","system":"http://unitsofmeasure.org"},"referenceRange":[{"low":{"value":30.0,"unit":"g/dL","system":"http://unitsofmeasure.org","code":"g/dL"},"high":{"value":34.0,"unit":"g/dL","system":"http://unitsofmeasure.org","code":"g/dL"},"type":{"coding":[{"system":"http://terminology.hl7.org/CodeSystem/referencerange-meaning","code":"normal","display":"Normal Range"}],"text":"Normal Range"}}]},"request":{"method":"PUT","url":"Observation/202205uscore-observation-example-107"}},{"fullUrl":"http://hapi.fhir.org/baseR4/Media/202205uscore-media-example-1","resource":{"resourceType":"Media","id":"202205uscore-media-example-1","meta":{"extension":[{"url":"http://hl7.org/fhir/StructureDefinition/instance-name","valueString":"EKG Strip Image"},{"url":"http://hl7.org/fhir/StructureDefinition/instance-description","valueMarkdown":"This is an example Media image that is reference by the *US Core DiagnosticReport Note Profile*."}],"tag":[{"code":"202201uscore"}]},"status":"completed","type":{"coding":[{"system":"http://terminology.hl7.org/CodeSystem/media-type","code":"image","display":"Image"}]},"subject":{"reference":"Patient/202205uscore-patient-example-1"},"createdDateTime":"2017-12-17","issued":"2021-11-10T18:17:58-08:00","content":{"contentType":"image/png","data":"","creation":"2021-11-10"}},"request":{"method":"PUT","url":"Media/202205uscore-media-example-1"}},{"fullUrl":"http://hapi.fhir.org/baseR4/Media/202205uscore-media-example-2","resource":{"resourceType":"Media","id":"202205uscore-media-example-2","meta":{"extension":[{"url":"http://hl7.org/fhir/StructureDefinition/instance-name","valueString":"Chest Xray Example"},{"url":"http://hl7.org/fhir/StructureDefinition/instance-description","valueMarkdown":"This is an example Media xray image that is reference by the *US Core DiagnosticReport Note Profile*."}],"tag":[{"code":"202201uscore"}]},"status":"completed","type":{"coding":[{"system":"http://terminology.hl7.org/CodeSystem/media-type","code":"image","display":"Image"}]},"modality":{"coding":[{"system":"http://snomed.info/sct","code":"399208008","display":"Plain chest X-ray (procedure)"}]},"subject":{"reference":"Patient/202205uscore-patient-example-1"},"createdDateTime":"2019-02-04T19:43:30+00:00","issued":"2019-02-04T19:43:30+00:00","content":{"id":"a1","contentType":"image/jpeg","url":"http://example.org/fhir/Binary/A12345","creation":"2019-02-04T19:43:30+00:00"}},"request":{"method":"PUT","url":"Media/202205uscore-media-example-2"}},{"fullUrl":"http://hapi.fhir.org/baseR4/Medication/202205uscore-medication-example-1","resource":{"resourceType":"Medication","id":"202205uscore-medication-example-1","meta":{"extension":[{"url":"http://hl7.org/fhir/StructureDefinition/instance-name","valueString":"Uscore Med2 Example"},{"url":"http://hl7.org/fhir/StructureDefinition/instance-description","valueMarkdown":"This is a uscore med2 example for the *US Core Medication Profile*."}],"profile":["http://hl7.org/fhir/us/core/StructureDefinition/us-core-medication"],"tag":[{"code":"202201uscore"}]},"code":{"coding":[{"system":"http://www.nlm.nih.gov/research/umls/rxnorm","code":"582620","display":"Nizatidine 15 MG/ML Oral Solution [Axid]"}],"text":"Nizatidine 15 MG/ML Oral Solution [Axid]"}},"request":{"method":"PUT","url":"Medication/202205uscore-medication-example-1"}},{"fullUrl":"http://hapi.fhir.org/baseR4/Medication/202205uscore-medication-example-2","resource":{"resourceType":"Medication","id":"202205uscore-medication-example-2","meta":{"extension":[{"url":"http://hl7.org/fhir/StructureDefinition/instance-name","valueString":"Uscore Med1 Example"},{"url":"http://hl7.org/fhir/StructureDefinition/instance-description","valueMarkdown":"This is a uscore med1 example for the *US Core Medication Profile*."}],"profile":["http://hl7.org/fhir/us/core/StructureDefinition/us-core-medication"],"tag":[{"code":"202201uscore"}]},"code":{"coding":[{"system":"http://www.nlm.nih.gov/research/umls/rxnorm","code":"206765","display":"Prinivil 10 MG Oral Tablet"}],"text":"lisinopril oral 10 mg"}},"request":{"method":"PUT","url":"Medication/202205uscore-medication-example-2"}},{"fullUrl":"http://hapi.fhir.org/baseR4/RelatedPerson/202205uscore-relatedperson-example-1","resource":{"resourceType":"RelatedPerson","id":"202205uscore-relatedperson-example-1","meta":{"extension":[{"url":"http://hl7.org/fhir/StructureDefinition/instance-name","valueString":"Patient Niece Example"},{"url":"http://hl7.org/fhir/StructureDefinition/instance-description","valueMarkdown":"This is a patient niece example for the *US Core RelatedPerson Profile Profile*."}],"profile":["http://hl7.org/fhir/us/core/StructureDefinition/us-core-relatedperson"],"tag":[{"code":"202201uscore"}]},"active":true,"patient":{"reference":"Patient/202205uscore-patient-example-1","display":"Amy V. Shaw"},"relationship":[{"coding":[{"system":"http://terminology.hl7.org/CodeSystem/v3-RoleCode","code":"NIECE","display":"niece"}]}],"name":[{"use":"official","family":"van Putten","given":["Sarah"]}],"telecom":[{"system":"phone","value":"555-555-5555","use":"home"},{"system":"email","value":"sarah.vanputten@example.com","use":"home"}],"birthDate":"1996-01-28","address":[{"use":"home","line":["80A Village Street"],"city":"New Holland","state":"PA","postalCode":"17557"}]},"request":{"method":"PUT","url":"RelatedPerson/202205uscore-relatedperson-example-1"}},{"fullUrl":"http://hapi.fhir.org/baseR4/MedicationRequest/202205uscore-medicationrequest-example-1","resource":{"resourceType":"MedicationRequest","id":"202205uscore-medicationrequest-example-1","meta":{"extension":[{"url":"http://hl7.org/fhir/StructureDefinition/instance-name","valueString":"Uscore MO2 Example"},{"url":"http://hl7.org/fhir/StructureDefinition/instance-description","valueMarkdown":"This is a uscore MO2 example for the *US Core MedicationRequest Profile*."}],"profile":["http://hl7.org/fhir/us/core/StructureDefinition/us-core-medicationrequest"],"tag":[{"code":"202201uscore"}]},"contained":[{"resourceType":"Medication","id":"med2","code":{"coding":[{"system":"http://www.nlm.nih.gov/research/umls/rxnorm","code":"582620","display":"Nizatidine 15 MG/ML Oral Solution [Axid]"}],"text":"Nizatidine 15 MG/ML Oral Solution [Axid]"}}],"status":"active","intent":"order","medicationReference":{"reference":"#med2","display":"Nizatidine 15 MG/ML Oral Solution [Axid]"},"subject":{"reference":"Patient/202205uscore-patient-example-1","display":"Amy Shaw"},"authoredOn":"2008-04-05","requester":{"reference":"Practitioner/202205uscore-practitioner-example-1","display":"Ronald Bone, MD"},"dosageInstruction":[{"text":"10 mL bid","timing":{"repeat":{"boundsPeriod":{"start":"2008-04-05"}}}}],"dispenseRequest":{"numberOfRepeatsAllowed":1,"quantity":{"value":480,"unit":"mL","system":"http://unitsofmeasure.org","code":"mL"},"expectedSupplyDuration":{"value":30,"unit":"days","system":"http://unitsofmeasure.org","code":"d"}}},"request":{"method":"PUT","url":"MedicationRequest/202205uscore-medicationrequest-example-1"}},{"fullUrl":"http://hapi.fhir.org/baseR4/ServiceRequest/202205uscore-servicerequest-example-1","resource":{"resourceType":"ServiceRequest","id":"202205uscore-servicerequest-example-1","meta":{"extension":[{"url":"http://hl7.org/fhir/StructureDefinition/instance-name","valueString":"ServiceRequest Example"},{"url":"http://hl7.org/fhir/StructureDefinition/instance-description","valueMarkdown":"This is a service request example for the *US Core ServiceRequest Profile Profile*."}],"profile":["http://hl7.org/fhir/us/core/StructureDefinition/us-core-servicerequest"],"tag":[{"code":"202201uscore"}]},"status":"active","intent":"order","category":[{"coding":[{"system":"http://hl7.org/fhir/us/core/CodeSystem/us-core-tags","code":"sdoh","display":"SDOH"}],"text":"Social Determinants Of Health"}],"code":{"coding":[{"system":"http://snomed.info/sct","code":"467771000124109","display":"Assistance with application for food pantry program"}]},"subject":{"reference":"Patient/202205uscore-patient-example-1"},"occurrenceDateTime":"2021-11-20","authoredOn":"2021-11-12T10:59:38-08:00","requester":{"reference":"Practitioner/202205uscore-practitioner-example-1"}},"request":{"method":"PUT","url":"ServiceRequest/202205uscore-servicerequest-example-1"}},{"fullUrl":"http://hapi.fhir.org/baseR4/QuestionnaireResponse/202205uscore-questionnaireresponse-example-1","resource":{"resourceType":"QuestionnaireResponse","id":"202205uscore-questionnaireresponse-example-1","meta":{"extension":[{"url":"http://hl7.org/fhir/StructureDefinition/instance-name","valueString":"PRAPARE Example"},{"url":"http://hl7.org/fhir/StructureDefinition/instance-description","valueMarkdown":"'An example of an US Core QuestionnaireResponse that represents questions and selected answers from the PRAPARE questionnaire represented in LOINC (code 93025-5). The example is generated using the LHC-Forms SDC Questionnaire App.'"}],"profile":["http://hl7.org/fhir/us/core/StructureDefinition/us-core-questionnaireresponse"],"tag":[{"system":"http://hl7.org/fhir/us/core/CodeSystem/us-core-tags","code":"sdoh"},{"code":"202201uscore"}]},"questionnaire":"http://hl7.org/fhir/us/sdoh-clinicalcare/Questionnaire/SDOHCC-QuestionnairePRAPARE","_questionnaire":{"extension":[{"url":"http://hl7.org/fhir/us/core/StructureDefinition/us-core-extension-questionnaire-uri","valueUri":"https://example.org/forms/PRAPARE"}]},"status":"completed","subject":{"reference":"Patient/202205uscore-patient-example-1","display":"Amy V. Shaw"},"authored":"2022-03-28T18:30:40-07:00","item":[{"linkId":"/93025-5","text":"Protocol for Responding to and Assessing Patients' Assets, Risks, and Experiences [PRAPARE]","item":[{"linkId":"/93043-8","text":"Personal characteristics","item":[{"linkId":"/93043-8/56051-6","text":"Do you consider yourself Hispanic/Latino?","answer":[{"valueCoding":{"system":"http://loinc.org","code":"LA32-8","display":"No"}}]},{"linkId":"/93043-8/32624-9","text":"Race","answer":[{"valueCoding":{"system":"http://loinc.org","code":"LA4457-3","display":"White"}},{"valueCoding":{"system":"http://loinc.org","code":"LA30187-1","display":"Pacific Islander"}}]},{"linkId":"/93043-8/93035-4","text":"At any point in the past 2 years, has season or migrant farm work been your or your family's main source of income?","answer":[{"valueCoding":{"system":"http://loinc.org","code":"LA33-6","display":"Yes"}}]},{"linkId":"/93043-8/93034-7","text":"Have you been discharged from the armed forces of the United States?","answer":[{"valueCoding":{"system":"http://loinc.org","code":"LA32-8","display":"No"}}]},{"linkId":"/93043-8/54899-0","text":"Preferred language","answer":[{"valueCoding":{"system":"http://loinc.org","code":"LA43-5","display":"English"}}]}]},{"linkId":"/93042-0","text":"Family and home","item":[{"linkId":"/93042-0/63512-8","text":"How many people are living or staying at this address?","answer":[{"valueInteger":6}]},{"linkId":"/93042-0/71802-3","text":"Housing status","answer":[{"valueCoding":{"system":"http://loinc.org","code":"LA30190-5","display":"I do not have housing (staying with others, in a hotel, in a shelter, living outside on the street, on a beach, in a car, or in a park)"}}]},{"linkId":"/93042-0/93033-9","text":"Are you worried about losing your housing?","answer":[{"valueCoding":{"system":"http://loinc.org","code":"LA30122-8","display":"I choose not to answer this question"}}]},{"linkId":"/93042-0/56799-0","text":"Address","answer":[{"valueString":"Broadway"}]}]},{"linkId":"/93041-2","text":"Money and resources","item":[{"linkId":"/93041-2/82589-3","text":"Highest level of educ","answer":[{"valueCoding":{"system":"http://loinc.org","code":"LA30191-3","display":"Less than high school degree"}}]},{"linkId":"/93041-2/67875-5","text":"Employment status current","answer":[{"valueCoding":{"system":"http://loinc.org","code":"LA17956-6","display":"Unemployed"}}]},{"linkId":"/93041-2/76437-3","text":"Primary insurance","answer":[{"valueCoding":{"system":"http://loinc.org","code":"LA17849-3","display":"Medicaid"}}]},{"linkId":"/93041-2/63586-2","text":"What was your best estimate of the total income of all family members from all sources, before taxes, in last year?","answer":[{"valueDecimal":25000}]},{"linkId":"/93041-2/93031-3","text":"In the past year, have you or any family members you live with been unable to get any of the following when it was really needed?","answer":[{"valueCoding":{"system":"http://loinc.org","code":"LA30126-9","display":"Clothing"}},{"valueCoding":{"system":"http://loinc.org","code":"LA30127-7","display":"Child care"}}]},{"linkId":"/93041-2/93030-5","text":"Has lack of transportation kept you from medical appointments, meetings, work, or from getting things needed for daily living?","answer":[{"valueCoding":{"system":"http://loinc.org","code":"LA30134-3","display":"Yes, it has kept me from non-medical meetings, appointments, work, or from getting things that I need"}}]}]},{"linkId":"/93040-4","text":"Social and emotional health","item":[{"linkId":"/93040-4/93029-7","text":"How often do you see or talk to people that you care about and feel close to (For example: talking to friends on the phone, visiting friends or family, going to church or club meetings)?","answer":[{"valueCoding":{"system":"http://loinc.org","code":"LA30130-1","display":"1 or 2 times a week"}}]},{"linkId":"/93040-4/93038-8","text":"Stress is when someone feels tense, nervous, anxious or can't sleep at night because their mind is troubled. How stressed are you?","answer":[{"valueCoding":{"system":"http://loinc.org","code":"LA13909-9","display":"Somewhat"}}]}]},{"linkId":"/93039-6","text":"Optional additional questions","item":[{"linkId":"/93039-6/93028-9","text":"In the past year, have you spent more than 2 nights in a row in a jail, prison, detention center, or juvenile correctional facility?","answer":[{"valueCoding":{"system":"http://loinc.org","code":"LA32-8","display":"No"}}]},{"linkId":"/93039-6/93027-1","text":"Are you a refugee?","answer":[{"valueCoding":{"system":"http://loinc.org","code":"LA32-8","display":"No"}}]},{"linkId":"/93039-6/93026-3","text":"Do you feel physically and emotionally safe where you currently live?","answer":[{"valueCoding":{"system":"http://loinc.org","code":"LA32-8","display":"No"}}]},{"linkId":"/93039-6/76501-6","text":"Within the last year, have you been afraid of your partner or ex-partner?","answer":[{"valueCoding":{"system":"http://loinc.org","code":"LA32-8","display":"No"}}]}]}]}]},"request":{"method":"PUT","url":"QuestionnaireResponse/202205uscore-questionnaireresponse-example-1"}},{"fullUrl":"http://hapi.fhir.org/baseR4/Goal/202205uscore-goal-example-1","resource":{"resourceType":"Goal","id":"202205uscore-goal-example-1","meta":{"extension":[{"url":"http://hl7.org/fhir/StructureDefinition/instance-name","valueString":"Goal 2 Example"},{"url":"http://hl7.org/fhir/StructureDefinition/instance-description","valueMarkdown":"This is a goal 2 example for the *US Core Goal Profile*."}],"profile":["http://hl7.org/fhir/us/core/StructureDefinition/us-core-goal"],"tag":[{"code":"202201uscore"}]},"lifecycleStatus":"active","description":{"coding":[{"system":"http://snomed.info/sct","code":"406156006","display":"In paid employment"}],"text":"In paid employment"},"subject":{"reference":"Patient/202205uscore-patient-example-1","display":"Amy Shaw"},"target":[{"dueDate":"2022-02-01"}]},"request":{"method":"PUT","url":"Goal/202205uscore-goal-example-1"}},{"fullUrl":"http://hapi.fhir.org/baseR4/Procedure/202205uscore-procedure-example-1","resource":{"resourceType":"Procedure","id":"202205uscore-procedure-example-1","meta":{"extension":[{"url":"http://hl7.org/fhir/StructureDefinition/instance-name","valueString":"Rehab Example"},{"url":"http://hl7.org/fhir/StructureDefinition/instance-description","valueMarkdown":"This is a rehab example for the *US Core Procedure Profile*."}],"profile":["http://hl7.org/fhir/us/core/StructureDefinition/us-core-procedure"],"tag":[{"code":"202201uscore"}]},"status":"completed","code":{"coding":[{"system":"http://snomed.info/sct","code":"24165007","display":"Alcoholism counseling"},{"system":"http://www.cms.gov/Medicare/Coding/ICD10","code":"HZ30ZZZ","display":"Individual Counseling for Substance Abuse Treatment, Cognitive"}],"text":"Alcohol rehabilitation"},"subject":{"reference":"Patient/202205uscore-patient-example-1","display":"Amy Shaw"},"performedDateTime":"2002-05-23"},"request":{"method":"PUT","url":"Procedure/202205uscore-procedure-example-1"}},{"fullUrl":"http://hapi.fhir.org/baseR4/AllergyIntolerance/202205uscore-allergyintolerance-example-1","resource":{"resourceType":"AllergyIntolerance","id":"202205uscore-allergyintolerance-example-1","meta":{"extension":[{"url":"http://hl7.org/fhir/StructureDefinition/instance-name","valueString":"AllergyIntolerance Example"},{"url":"http://hl7.org/fhir/StructureDefinition/instance-description","valueMarkdown":"This is a allergyintolerance example for the *US Core AllergyIntolerance Profile*."}],"profile":["http://hl7.org/fhir/us/core/StructureDefinition/us-core-allergyintolerance"],"tag":[{"code":"202201uscore"}]},"clinicalStatus":{"coding":[{"system":"http://terminology.hl7.org/CodeSystem/allergyintolerance-clinical","code":"active"}]},"verificationStatus":{"coding":[{"system":"http://terminology.hl7.org/CodeSystem/allergyintolerance-verification","code":"confirmed"}]},"category":["medication"],"criticality":"high","code":{"coding":[{"system":"http://snomed.info/sct","code":"763875007","display":"Product containing sulfonamide (product)"}],"text":"sulfonamide antibacterial"},"patient":{"reference":"Patient/202205uscore-patient-example-1","display":"Amy V. Shaw"},"reaction":[{"manifestation":[{"coding":[{"system":"http://snomed.info/sct","code":"271807003","display":"skin rash"}],"text":"skin rash"}],"severity":"mild"}]},"request":{"method":"PUT","url":"AllergyIntolerance/202205uscore-allergyintolerance-example-1"}},{"fullUrl":"http://hapi.fhir.org/baseR4/CareTeam/202205uscore-careteam-example-1","resource":{"resourceType":"CareTeam","id":"202205uscore-careteam-example-1","meta":{"extension":[{"url":"http://hl7.org/fhir/StructureDefinition/instance-name","valueString":"CareTeam Example"},{"url":"http://hl7.org/fhir/StructureDefinition/instance-description","valueMarkdown":"This is a careteam example for the *US Core CareTeam Profile*."}],"profile":["http://hl7.org/fhir/us/core/StructureDefinition/us-core-careteam"],"tag":[{"code":"202201uscore"}]},"status":"active","name":"US-Core example CareTeam","subject":{"reference":"Patient/202205uscore-patient-example-1","display":"Amy V. Shaw"},"participant":[{"role":[{"coding":[{"system":"http://snomed.info/sct","code":"17561000","display":"Cardiologist"}]}],"member":{"reference":"Practitioner/202205uscore-practitioner-example-1","display":"Ronald Bone, MD"}},{"role":[{"coding":[{"system":"http://snomed.info/sct","code":"453231000124104","display":"Primary care provider"}]}],"member":{"reference":"Practitioner/202205uscore-practitioner-example-2","display":"Kathy Fielding, MD"}},{"role":[{"coding":[{"system":"http://snomed.info/sct","code":"116154003","display":"Patient (person)"}]}],"member":{"reference":"Patient/202205uscore-patient-example-1","display":"Amy V. Shaw"}},{"role":[{"coding":[{"system":"http://snomed.info/sct","code":"133932002","display":"Caregiver (person)"}]}],"member":{"reference":"RelatedPerson/202205uscore-relatedperson-example-1","display":"Sarah van Putten"}}]},"request":{"method":"PUT","url":"CareTeam/202205uscore-careteam-example-1"}},{"fullUrl":"http://hapi.fhir.org/baseR4/DiagnosticReport/202205uscore-diagnosticreport-example-1","resource":{"resourceType":"DiagnosticReport","id":"202205uscore-diagnosticreport-example-1","meta":{"extension":[{"url":"http://hl7.org/fhir/StructureDefinition/instance-name","valueString":"DXA Bone density quantitative measurement panel Example"},{"url":"http://hl7.org/fhir/StructureDefinition/instance-description","valueMarkdown":"This is a DXA Bone density quantitative measurement panel report example for the *US Core DiagnosticReport Note Profile*."}],"profile":["http://hl7.org/fhir/us/core/StructureDefinition/us-core-diagnosticreport-note"],"tag":[{"code":"202201uscore"}]},"status":"final","category":[{"coding":[{"system":"http://loinc.org","code":"LP29684-5","display":"Radiology"}],"text":"Radiology"}],"code":{"coding":[{"system":"http://loinc.org","code":"83311-1","display":"Bone density quantitative measurement by DXA panel"}],"text":"DXA Bone density quantitative measurement panel"},"subject":{"reference":"Patient/202205uscore-patient-example-1"},"effectiveDateTime":"2021-11-10T19:30:46-08:00","result":[{"reference":"Observation/202205uscore-observation-example-106"},{"reference":"Observation/202205uscore-observation-example-93"},{"reference":"Observation/202205uscore-observation-example-37"},{"reference":"Observation/202205uscore-observation-example-95"},{"reference":"Observation/202205uscore-observation-example-74"},{"reference":"Observation/202205uscore-observation-example-79"}],"presentedForm":[{"contentType":"application/pdf","data":""}]},"request":{"method":"PUT","url":"DiagnosticReport/202205uscore-diagnosticreport-example-1"}},{"fullUrl":"http://hapi.fhir.org/baseR4/DiagnosticReport/202205uscore-diagnosticreport-example-2","resource":{"resourceType":"DiagnosticReport","id":"202205uscore-diagnosticreport-example-2","meta":{"extension":[{"url":"http://hl7.org/fhir/StructureDefinition/instance-name","valueString":"Metabolic Panel Example"},{"url":"http://hl7.org/fhir/StructureDefinition/instance-description","valueMarkdown":"This is a metabolic panel example for the *US Core DiagnosticReport Lab Profile*."}],"profile":["http://hl7.org/fhir/us/core/StructureDefinition/us-core-diagnosticreport-lab"],"tag":[{"code":"202201uscore"}]},"status":"final","category":[{"coding":[{"system":"http://terminology.hl7.org/CodeSystem/v2-0074","code":"LAB","display":"Laboratory"}]}],"code":{"coding":[{"system":"http://loinc.org","code":"24323-8","display":"Comprehensive metabolic 2000 panel - Serum or Plasma"}]},"subject":{"reference":"Patient/202205uscore-patient-example-1","display":"Amy Shaw"},"effectiveDateTime":"2005-07-04","issued":"2005-07-06T11:45:33+11:00","performer":[{"reference":"Organization/202205uscore-organization-example-1","display":"Acme Laboratory, Inc"}],"result":[{"reference":"Observation/202205uscore-observation-example-97","display":"TOTAL BILIRUBIN"},{"reference":"Observation/202205uscore-observation-example-28","display":"SODIUM"},{"reference":"Observation/202205uscore-observation-example-23","display":"Potassium"},{"reference":"Observation/202205uscore-observation-example-30","display":"CREATININE"},{"reference":"Observation/202205uscore-observation-example-105","display":"TOTAL CO2"},{"reference":"Observation/202205uscore-observation-example-86","display":"CHLORIDE"},{"reference":"Observation/202205uscore-observation-example-47","display":"CALCIUM"},{"reference":"Observation/202205uscore-observation-example-103","display":"BUN"},{"reference":"Observation/202205uscore-observation-example-61","display":"GLUCOSE"}]},"request":{"method":"PUT","url":"DiagnosticReport/202205uscore-diagnosticreport-example-2"}},{"fullUrl":"http://hapi.fhir.org/baseR4/Condition/202205uscore-condition-example-1","resource":{"resourceType":"Condition","id":"202205uscore-condition-example-1","meta":{"extension":[{"url":"http://hl7.org/fhir/StructureDefinition/instance-name","valueString":"Health Concern Example"},{"url":"http://hl7.org/fhir/StructureDefinition/instance-description","valueMarkdown":"This example of a US Core Condition Problems and Health Concerns Profile illustrates its use to capture information about a patient's health concern."}],"profile":["http://hl7.org/fhir/us/core//StructureDefinition/us-core-condition-problems-health-concerns"],"tag":[{"code":"202201uscore"}]},"extension":[{"url":"http://hl7.org/fhir/StructureDefinition/condition-assertedDate","valueDateTime":"2007-12-14"}],"clinicalStatus":{"coding":[{"system":"http://terminology.hl7.org/CodeSystem/condition-clinical","code":"active","display":"Active"}],"text":"Active"},"verificationStatus":{"coding":[{"system":"http://terminology.hl7.org/CodeSystem/condition-ver-status","code":"confirmed","display":"Confirmed"}],"text":"Confirmed"},"category":[{"coding":[{"system":"http://hl7.org/fhir/us/core/CodeSystem/condition-category","code":"health-concern","display":"Health Concern"}],"text":"Health Concern"}],"code":{"coding":[{"system":"http://snomed.info/sct","code":"247824007","display":"Fear of becoming fat"}],"text":"Fear of becoming fat"},"subject":{"reference":"Patient/202205uscore-patient-example-1","display":"Amy Shaw"},"onsetDateTime":"2007-12-14","recordedDate":"2007-12-14T07:15:07-08:00"},"request":{"method":"PUT","url":"Condition/202205uscore-condition-example-1"}},{"fullUrl":"http://hapi.fhir.org/baseR4/Condition/202205uscore-condition-example-2","resource":{"resourceType":"Condition","id":"202205uscore-condition-example-2","meta":{"extension":[{"url":"http://hl7.org/fhir/StructureDefinition/instance-name","valueString":"Encounter Diagnosis Example 2"},{"url":"http://hl7.org/fhir/StructureDefinition/instance-description","valueMarkdown":"This example of a US Core Condition Encounter Diagnosis Profile illustrates its use to capture information about a patient's encounter diagnosis."}],"profile":["http://hl7.org/fhir/us/core//StructureDefinition/us-core-condition-encounter-diagnosis"],"tag":[{"code":"202201uscore"}]},"extension":[{"url":"http://hl7.org/fhir/StructureDefinition/condition-assertedDate","valueDateTime":"2016-08-10"}],"clinicalStatus":{"coding":[{"system":"http://terminology.hl7.org/CodeSystem/condition-clinical","code":"resolved","display":"Resolved"}],"text":"Resolved"},"verificationStatus":{"coding":[{"system":"http://terminology.hl7.org/CodeSystem/condition-ver-status","code":"confirmed","display":"Confirmed"}],"text":"Confirmed"},"category":[{"coding":[{"system":"http://terminology.hl7.org/CodeSystem/condition-category","code":"encounter-diagnosis","display":"Encounter Diagnosis"}],"text":"Encounter Diagnosis"}],"code":{"coding":[{"system":"http://snomed.info/sct","code":"442311008","display":"Liveborn born in hospital"}],"text":"Single liveborn, born in hospital"},"subject":{"reference":"Patient/202205uscore-patient-example-1","display":"Amy V. Shaw"},"encounter":{"reference":"Encounter/202205uscore-encounter-example-1"},"onsetDateTime":"2016-08-10","abatementDateTime":"2016-08-10","recordedDate":"2016-08-10T07:15:07-08:00"},"request":{"method":"PUT","url":"Condition/202205uscore-condition-example-2"}},{"fullUrl":"http://hapi.fhir.org/baseR4/DiagnosticReport/202205uscore-diagnosticreport-example-3","resource":{"resourceType":"DiagnosticReport","id":"202205uscore-diagnosticreport-example-3","meta":{"extension":[{"url":"http://hl7.org/fhir/StructureDefinition/instance-name","valueString":"DiagnosticReport Cardiology Report Example"},{"url":"http://hl7.org/fhir/StructureDefinition/instance-description","valueMarkdown":"This is a DiagnosticReport cardiology report example for the *US Core DiagnosticReport Note Profile*."}],"profile":["http://hl7.org/fhir/us/core/StructureDefinition/us-core-diagnosticreport-note"],"tag":[{"code":"202201uscore"}]},"status":"final","category":[{"coding":[{"system":"http://loinc.org","code":"LP29708-2","display":"Cardiology"}],"text":"Cardiology"}],"code":{"coding":[{"system":"http://loinc.org","code":"45033-8","display":"Cardiovascular physiologic and EKG assessment panel"}],"text":"Cardiovascular physiologic and EKG assessment panel"},"subject":{"reference":"Patient/202205uscore-patient-example-1"},"effectiveDateTime":"2021-11-10T21:39:30+00:00","result":[{"reference":"Observation/202205uscore-observation-example-16"},{"reference":"Observation/202205uscore-observation-example-14"},{"reference":"Observation/202205uscore-observation-example-77"},{"reference":"Observation/202205uscore-observation-example-80"},{"reference":"Observation/202205uscore-observation-example-36"},{"reference":"Observation/202205uscore-observation-example-64"},{"reference":"Observation/202205uscore-observation-example-6"},{"reference":"Observation/202205uscore-observation-example-51"},{"reference":"Observation/202205uscore-observation-example-89"}],"media":[{"link":{"reference":"Media/202205uscore-media-example-1","display":"EKG Strip"}}],"presentedForm":[{"contentType":"application/pdf","url":"http://example.org/pdfdownloads/cardiopanel-report-123.pdf","hash":"RVFILy4uQWdNRQo="}]},"request":{"method":"PUT","url":"DiagnosticReport/202205uscore-diagnosticreport-example-3"}},{"fullUrl":"http://hapi.fhir.org/baseR4/CarePlan/202205uscore-careplan-example-1","resource":{"resourceType":"CarePlan","id":"202205uscore-careplan-example-1","meta":{"extension":[{"url":"http://hl7.org/fhir/StructureDefinition/instance-name","valueString":"Colonoscopy Example"},{"url":"http://hl7.org/fhir/StructureDefinition/instance-description","valueMarkdown":"This is a colonoscopy example for the *US Core CarePlan Profile*."}],"profile":["http://hl7.org/fhir/us/core/StructureDefinition/us-core-careplan"],"tag":[{"code":"202201uscore"}]},"status":"active","intent":"order","category":[{"coding":[{"system":"http://hl7.org/fhir/us/core/CodeSystem/careplan-category","code":"assess-plan"}]}],"subject":{"reference":"Patient/202205uscore-patient-example-1","display":"Amy Shaw"}},"request":{"method":"PUT","url":"CarePlan/202205uscore-careplan-example-1"}},{"fullUrl":"http://hapi.fhir.org/baseR4/Device/202205uscore-device-example-1","resource":{"resourceType":"Device","id":"202205uscore-device-example-1","meta":{"extension":[{"url":"http://hl7.org/fhir/StructureDefinition/instance-name","valueString":"UDI 1 Example"},{"url":"http://hl7.org/fhir/StructureDefinition/instance-description","valueMarkdown":"This is a UDI 1 example for the *US Core Implantable Device Profile*."}],"profile":["http://hl7.org/fhir/us/core/StructureDefinition/us-core-implantable-device"],"tag":[{"code":"202201uscore"}]},"udiCarrier":[{"deviceIdentifier":"09504000059118","carrierHRF":"(01)09504000059118(17)141120(10)7654321D(21)10987654d321"}],"status":"active","expirationDate":"2014-11-20","lotNumber":"7654321D","serialNumber":"10987654d321","type":{"coding":[{"system":"http://snomed.info/sct","code":"468063009","display":"Coated femoral stem prosthesis, modular"}]},"patient":{"reference":"Patient/202205uscore-patient-example-1","display":"Amy Shaw"}},"request":{"method":"PUT","url":"Device/202205uscore-device-example-1"}},{"fullUrl":"http://hapi.fhir.org/baseR4/QuestionnaireResponse/202205uscore-questionnaireresponse-example-2","resource":{"resourceType":"QuestionnaireResponse","id":"202205uscore-questionnaireresponse-example-2","meta":{"extension":[{"url":"http://hl7.org/fhir/StructureDefinition/instance-name","valueString":"Glascow Coma Score Example"},{"url":"http://hl7.org/fhir/StructureDefinition/instance-description","valueMarkdown":"'This example of a US Core QuestionnaireResponse illustrate using Questionnaire as a *stand alone* resource. It does not point to the definition of the questions in  a FHIR Questionnaire, but represents the answers from a non FHIR survey instrument (in this case a pdf).'"}],"profile":["http://hl7.org/fhir/us/core/StructureDefinition/us-core-questionnaireresponse"],"tag":[{"code":"202201uscore"}]},"status":"completed","subject":{"reference":"Patient/202205uscore-patient-example-1","display":"Amy V. Shaw"},"authored":"2014-12-11T04:44:16+00:00","author":{"reference":"Practitioner/202205uscore-practitioner-example-1","display":"Ronald Bone"},"item":[{"linkId":"1","text":"Eye Opening Response","answer":[{"valueDecimal":4}]},{"linkId":"2","text":"Verbal Response","answer":[{"valueDecimal":4}]},{"linkId":"3","text":"Motor Response","answer":[{"valueDecimal":4}]}]},"request":{"method":"PUT","url":"QuestionnaireResponse/202205uscore-questionnaireresponse-example-2"}},{"fullUrl":"http://hapi.fhir.org/baseR4/Condition/202205uscore-condition-example-3","resource":{"resourceType":"Condition","id":"202205uscore-condition-example-3","meta":{"extension":[{"url":"http://hl7.org/fhir/StructureDefinition/instance-name","valueString":"SDOH Problem/Health Concern Example"},{"url":"http://hl7.org/fhir/StructureDefinition/instance-description","valueMarkdown":"This example of a US Core Condition Problems and Health Concerns Profile illustrates its use to capture information about a patient's SDOH Problem/Health Concern."}],"profile":["http://hl7.org/fhir/us/core//StructureDefinition/us-core-condition-problems-health-concerns"],"tag":[{"code":"202201uscore"}]},"extension":[{"url":"http://hl7.org/fhir/StructureDefinition/condition-assertedDate","valueDateTime":"2016-08-10"}],"clinicalStatus":{"coding":[{"system":"http://terminology.hl7.org/CodeSystem/condition-clinical","code":"active","display":"Active"}],"text":"Active"},"verificationStatus":{"coding":[{"system":"http://terminology.hl7.org/CodeSystem/condition-ver-status","code":"confirmed","display":"Confirmed"}],"text":"Confirmed"},"category":[{"coding":[{"system":"http://terminology.hl7.org/CodeSystem/condition-category","code":"problem-list-item","display":"Problem List Item"}],"text":"Problem List Item"},{"coding":[{"system":"http://hl7.org/fhir/us/core/CodeSystem/us-core-tags","code":"sdoh","display":"SDOH"}],"text":"Social Determinants Of Health"}],"code":{"coding":[{"system":"http://snomed.info/sct","code":"445281000124101","display":"Nutrition impaired due to limited access to healthful foods (finding)"}],"text":"Nutrition impaired due to limited access to healthful foods (finding)"},"subject":{"reference":"Patient/202205uscore-patient-example-1","display":"Amy V. Shaw"},"recordedDate":"2016-08-10T07:15:07-08:00"},"request":{"method":"PUT","url":"Condition/202205uscore-condition-example-3"}},{"fullUrl":"http://hapi.fhir.org/baseR4/Device/202205uscore-device-example-2","resource":{"resourceType":"Device","id":"202205uscore-device-example-2","meta":{"extension":[{"url":"http://hl7.org/fhir/StructureDefinition/instance-name","valueString":"Device Defib Example"},{"url":"http://hl7.org/fhir/StructureDefinition/instance-description","valueMarkdown":"This is a Device defib example for the *US Core Implantable Device Profile*."}],"profile":["http://hl7.org/fhir/us/core/StructureDefinition/us-core-implantable-device"],"tag":[{"code":"202201uscore"}]},"udiCarrier":[{"deviceIdentifier":"99863313444316","carrierHRF":"(01)99863313444316(17)220101(10)M320(21)AC221","entryType":"rfid"}],"status":"active","manufacturer":"ACME Biomedical","expirationDate":"2022-01-01","lotNumber":"M320","serialNumber":"AC221","deviceName":[{"name":"ACME Defibrillator Analyzer, with Transcutaneous Pacemaker Input","type":"udi-label-name"}],"modelNumber":"1.0","type":{"coding":[{"system":"http://snomed.info/sct","code":"19257004","display":"Defibrillator, device"}],"text":"Implant"},"patient":{"reference":"Patient/202205uscore-patient-example-1","display":"Amy Shaw"}},"request":{"method":"PUT","url":"Device/202205uscore-device-example-2"}},{"fullUrl":"http://hapi.fhir.org/baseR4/Goal/202205uscore-goal-example-2","resource":{"resourceType":"Goal","id":"202205uscore-goal-example-2","meta":{"extension":[{"url":"http://hl7.org/fhir/StructureDefinition/instance-name","valueString":"Goal 1 Example"},{"url":"http://hl7.org/fhir/StructureDefinition/instance-description","valueMarkdown":"This is a goal 1 example for the *US Core Goal Profile*."}],"profile":["http://hl7.org/fhir/us/core/StructureDefinition/us-core-goal"],"tag":[{"code":"202201uscore"}]},"lifecycleStatus":"active","description":{"text":"Patient is targeting a pulse oximetry of 92% and a weight of 195 lbs"},"subject":{"reference":"Patient/202205uscore-patient-example-1","display":"Amy Shaw"},"target":[{"dueDate":"2016-04-05"}]},"request":{"method":"PUT","url":"Goal/202205uscore-goal-example-2"}},{"fullUrl":"http://hapi.fhir.org/baseR4/Condition/202205uscore-condition-example-4","resource":{"resourceType":"Condition","id":"202205uscore-condition-example-4","meta":{"extension":[{"url":"http://hl7.org/fhir/StructureDefinition/instance-name","valueString":"Encounter Diagnosis Example 1"},{"url":"http://hl7.org/fhir/StructureDefinition/instance-description","valueMarkdown":"This example of a US Core Condition Encounter Diagnosis Profile illustrates its use to capture information about a patient's encounter diagnosis."}],"profile":["http://hl7.org/fhir/us/core//StructureDefinition/us-core-condition-encounter-diagnosis"],"tag":[{"code":"202201uscore"}]},"extension":[{"url":"http://hl7.org/fhir/StructureDefinition/condition-assertedDate","valueDateTime":"2015-10-31"}],"clinicalStatus":{"coding":[{"system":"http://terminology.hl7.org/CodeSystem/condition-clinical","code":"resolved"}]},"verificationStatus":{"coding":[{"system":"http://terminology.hl7.org/CodeSystem/condition-ver-status","code":"confirmed"}]},"category":[{"coding":[{"system":"http://terminology.hl7.org/CodeSystem/condition-category","code":"encounter-diagnosis","display":"Encounter Diagnosis"}]}],"code":{"coding":[{"system":"http://snomed.info/sct","code":"39065001","display":"Burn of ear"}],"text":"Burnt Ear"},"subject":{"reference":"Patient/202205uscore-patient-example-1","display":"Amy Shaw"},"encounter":{"reference":"Encounter/202205uscore-encounter-example-3"},"onsetDateTime":"2015-10-31","abatementDateTime":"2015-12-01","recordedDate":"2015-11-01"},"request":{"method":"PUT","url":"Condition/202205uscore-condition-example-4"}},{"fullUrl":"http://hapi.fhir.org/baseR4/DiagnosticReport/202205uscore-diagnosticreport-example-4","resource":{"resourceType":"DiagnosticReport","id":"202205uscore-diagnosticreport-example-4","meta":{"extension":[{"url":"http://hl7.org/fhir/StructureDefinition/instance-name","valueString":"CBC Example"},{"url":"http://hl7.org/fhir/StructureDefinition/instance-description","valueMarkdown":"This is a CBC example for the *US Core DiagnosticReport Lab Profile*."}],"profile":["http://hl7.org/fhir/us/core/StructureDefinition/us-core-diagnosticreport-lab"],"tag":[{"code":"202201uscore"}]},"status":"final","category":[{"coding":[{"system":"http://terminology.hl7.org/CodeSystem/v2-0074","code":"LAB","display":"Laboratory"}]}],"code":{"coding":[{"system":"http://loinc.org","code":"58410-2","display":"CBC panel - Blood by Automated count"}]},"subject":{"reference":"Patient/202205uscore-patient-example-1","display":"Amy Shaw"},"effectiveDateTime":"2005-07-05","issued":"2005-07-06T11:45:33+11:00","performer":[{"reference":"Organization/202205uscore-organization-example-1","display":"Acme Laboratory, Inc"}],"result":[{"reference":"Observation/202205uscore-observation-example-4","display":"NEUTROPHILS"},{"reference":"Observation/202205uscore-observation-example-107","display":"MCHC"},{"reference":"Observation/202205uscore-observation-example-88","display":"HEMOGLOBIN"},{"reference":"Observation/202205uscore-observation-example-100","display":"ERYTHROCYTES"}]},"request":{"method":"PUT","url":"DiagnosticReport/202205uscore-diagnosticreport-example-4"}},{"fullUrl":"http://hapi.fhir.org/baseR4/MedicationRequest/202205uscore-medicationrequest-example-2","resource":{"resourceType":"MedicationRequest","id":"202205uscore-medicationrequest-example-2","meta":{"extension":[{"url":"http://hl7.org/fhir/StructureDefinition/instance-name","valueString":"Self Tylenol Example"},{"url":"http://hl7.org/fhir/StructureDefinition/instance-description","valueMarkdown":"This is a self tylenol example for the *MedicationRequest Profile*."}],"profile":["http://hl7.org/fhir/us/core/StructureDefinition/us-core-medicationrequest"],"tag":[{"code":"202201uscore"}]},"identifier":[{"use":"official","system":"http://acme.org/prescriptions","value":"12345689"}],"status":"active","intent":"plan","reportedBoolean":true,"medicationCodeableConcept":{"coding":[{"system":"http://www.nlm.nih.gov/research/umls/rxnorm","code":"1187314","display":"Tylenol PM Pill"}],"text":"Tylenol PM Pill"},"subject":{"reference":"Patient/202205uscore-patient-example-1","display":"Amy V. Shaw"},"encounter":{"reference":"Encounter/202205uscore-encounter-example-3","display":"Office Visit"},"authoredOn":"2019-06-24","requester":{"reference":"Patient/202205uscore-patient-example-1","display":"**self-prescribed**"},"dosageInstruction":[{"text":"Takes 1-2 tablets once daily at bedtime as needed for restless legs"}]},"request":{"method":"PUT","url":"MedicationRequest/202205uscore-medicationrequest-example-2"}},{"fullUrl":"http://hapi.fhir.org/baseR4/Procedure/202205uscore-procedure-example-2","resource":{"resourceType":"Procedure","id":"202205uscore-procedure-example-2","meta":{"extension":[{"url":"http://hl7.org/fhir/StructureDefinition/instance-name","valueString":"Procedure R4 Defib Implant Example"},{"url":"http://hl7.org/fhir/StructureDefinition/instance-description","valueMarkdown":"This is a Procedure R4 defib implant example for the *US Core Procedure Profile*."}],"profile":["http://hl7.org/fhir/us/core/StructureDefinition/us-core-procedure"],"tag":[{"code":"202201uscore"}]},"identifier":[{"system":"urn:ietf:rfc:3986","value":"urn:uuid:b2a737f2-2fdb-49c1-b097-dac173d07aff"}],"status":"completed","code":{"coding":[{"system":"http://www.ama-assn.org/go/cpt","code":"33249"}],"text":"Insertion or replacement of permanent implantable defibrillator system with transvenous lead(s), single or dual chamber"},"subject":{"reference":"Patient/202205uscore-patient-example-1"},"performedPeriod":{"start":"2019-03-26T12:55:26-07:00","end":"2019-03-26T13:25:26-07:00"},"performer":[{"actor":{"reference":"Practitioner/202205uscore-practitioner-example-1"}}],"focalDevice":[{"manipulated":{"reference":"Device/202205uscore-device-example-2"}}]},"request":{"method":"PUT","url":"Procedure/202205uscore-procedure-example-2"}},{"fullUrl":"http://hapi.fhir.org/baseR4/Immunization/202205uscore-immunization-example-1","resource":{"resourceType":"Immunization","id":"202205uscore-immunization-example-1","meta":{"extension":[{"url":"http://hl7.org/fhir/StructureDefinition/instance-name","valueString":"Imm 1 Example"},{"url":"http://hl7.org/fhir/StructureDefinition/instance-description","valueMarkdown":"This is a imm 1 example for the *US Core Immunization Profile*."}],"profile":["http://hl7.org/fhir/us/core/StructureDefinition/us-core-immunization"],"tag":[{"code":"202201uscore"}]},"status":"completed","vaccineCode":{"coding":[{"system":"http://hl7.org/fhir/sid/cvx","code":"197","display":"influenza, high-dose, quadrivalent"},{"system":"http://hl7.org/fhir/sid/ndc","code":"49281012165","display":"FLUZONE High-Dose Quadrivalent Northern Hemisphere, 10 SYRINGE, GLASS in 1 PACKAGE (49281-121-65)  > .7 mL in 1 SYRINGE, GLASS (49281-121-88)  (package)"}],"text":"influenza, high-dose, quadrivalent"},"patient":{"reference":"Patient/202205uscore-patient-example-1","display":"Amy Shaw"},"occurrenceDateTime":"2020-11-19T12:46:57-08:00","primarySource":false},"request":{"method":"PUT","url":"Immunization/202205uscore-immunization-example-1"}},{"fullUrl":"http://hapi.fhir.org/baseR4/Device/202205uscore-device-example-3","resource":{"resourceType":"Device","id":"202205uscore-device-example-3","meta":{"extension":[{"url":"http://hl7.org/fhir/StructureDefinition/instance-name","valueString":"Device Knee Example"},{"url":"http://hl7.org/fhir/StructureDefinition/instance-description","valueMarkdown":"This is a Device knee example for the *US Core Implantable Device Profile*."}],"versionId":"2","lastUpdated":"2019-04-11T16:21:48.921000+00:00","profile":["http://hl7.org/fhir/us/core/StructureDefinition/us-core-implantable-device"],"tag":[{"code":"202201uscore"}]},"udiCarrier":[{"deviceIdentifier":"987979879879","carrierHRF":"(01)987979879879(11)191015(17)220101(10)M320(21)AC221","entryType":"rfid"}],"status":"active","manufacturer":"ACME Biomedical","manufactureDate":"2015-10-15","expirationDate":"2022-01-01","lotNumber":"M320","serialNumber":"AC221","deviceName":[{"name":"ACME Knee Replacement Device","type":"udi-label-name"}],"modelNumber":"1.0","type":{"coding":[{"system":"http://snomed.info/sct","code":"109228008","display":"Knee joint prosthesis"}],"text":"Knee joint prosthesis"},"patient":{"reference":"Patient/202205uscore-patient-example-1","display":"Amy V. Shaw"}},"request":{"method":"PUT","url":"Device/202205uscore-device-example-3"}},{"fullUrl":"http://hapi.fhir.org/baseR4/QuestionnaireResponse/202205uscore-questionnaireresponse-example-3","resource":{"resourceType":"QuestionnaireResponse","id":"202205uscore-questionnaireresponse-example-3","meta":{"extension":[{"url":"http://hl7.org/fhir/StructureDefinition/instance-name","valueString":"AHC HRSN Screening Example"},{"url":"http://hl7.org/fhir/StructureDefinition/instance-description","valueMarkdown":"'An example of an SDC QuestionnaireResponse that represents questions and selected answers from the Accountable health communities (AHC) health-related social needs screening (HRSN) tool in LOINC (code  96777-8). The example is generated using the LHC-Forms SDC Questionnaire App.'"}],"profile":["http://hl7.org/fhir/us/core/StructureDefinition/us-core-questionnaireresponse"],"tag":[{"system":"http://hl7.org/fhir/us/core/CodeSystem/us-core-tags","code":"sdoh"},{"code":"202201uscore"}]},"questionnaire":"http://example.org/Questionnaire/lforms-ahn-hrsn-screening","_questionnaire":{"extension":[{"url":"http://hl7.org/fhir/us/core/StructureDefinition/us-core-extension-questionnaire-uri","valueUri":"http://example.org/Questionnaire/lforms-ahn-hrsn-screening"}]},"status":"completed","subject":{"reference":"Patient/202205uscore-patient-example-1","display":"Amy V. Shaw"},"authored":"2022-03-29T22:38:59.084000+00:00","item":[{"linkId":"/76513-1","text":"How hard is it for you to pay for the very basics like food, housing, medical care, and heating?","answer":[{"valueCoding":{"system":"http://loinc.org","code":"LA31980-8","display":"Not hard at all"}}]},{"linkId":"/96780-2","text":"Do you want help finding or keeping work or a job?","answer":[{"valueCoding":{"system":"http://loinc.org","code":"LA31983-2","display":"I do not need or want help"}}]},{"linkId":"/96781-0","text":"If for any reason you need help with day-to-day activities such as bathing, preparing meals, shopping, managing finances, etc., do you get the help you need?","answer":[{"valueCoding":{"system":"http://loinc.org","code":"LA31976-6","display":"I don't need any help"}}]},{"linkId":"/93159-2","text":"How often do you feel lonely or isolated from those around you?","answer":[{"valueCoding":{"system":"http://loinc.org","code":"LA6270-8","display":"Never"}}]},{"linkId":"/97027-7","text":"Do you speak a language other than English at home?","answer":[{"valueCoding":{"system":"http://loinc.org","code":"LA32-8","display":"No"}}]},{"linkId":"/96782-8","text":"Do you want help with school or training? For example, starting or completing job training or getting a high school diploma, GED or equivalent.","answer":[{"valueCoding":{"system":"http://loinc.org","code":"LA32-8","display":"No"}}]},{"linkId":"/89555-7","text":"In the last 30 days, other than the activities you did for work, on average, how many days per week did you engage in moderate exercise (like walking fast, running, jogging, dancing, swimming, biking, or other similar activities)?","answer":[{"valueCoding":{"system":"http://loinc.org","code":"LA10137-0","display":"5"}}]},{"linkId":"/68516-4","text":"On average, how many minutes did you usually spend exercising at this level on one of those days?","answer":[{"valueCoding":{"system":"http://loinc.org","code":"LA28853-2","display":"60"}}]},{"linkId":"/68517-2","text":"How many times in the past 12 months have you had 5 or more drinks in a day (males) or 4 or more drinks in a day (females)?","answer":[{"valueCoding":{"system":"http://loinc.org","code":"LA6270-8","display":"Never"}}]},{"linkId":"/96842-0","text":"How often have you used any tobacco product in past 12 months?","answer":[{"valueCoding":{"system":"http://loinc.org","code":"LA6270-8","display":"Never"}}]},{"linkId":"/95530-2","text":"How many times in the past year have you used prescription drugs for non-medical reasons?","answer":[{"valueCoding":{"system":"http://loinc.org","code":"LA6270-8","display":"Never"}}]},{"linkId":"/68524-8","text":"How many times in the past year have you used illegal drugs?","answer":[{"valueCoding":{"system":"http://loinc.org","code":"LA6270-8","display":"Never"}}]},{"linkId":"/44250-9","text":"Little interest or pleasure in doing things?","answer":[{"valueCoding":{"system":"http://loinc.org","code":"LA6568-5","display":"Not at all"}}]},{"linkId":"/44255-8","text":"Feeling down, depressed, or hopeless?","answer":[{"valueCoding":{"system":"http://loinc.org","code":"LA6568-5","display":"Not at all"}}]},{"linkId":"/93038-8","text":"Stress means a situation in which a person feels tense, restless, nervous, or anxious, or is unable to sleep at night because his or her mind is troubled all the time.  Do you feel this kind of stress these days?","answer":[{"valueCoding":{"system":"http://loinc.org","code":"LA13863-8","display":"A little bit"}}]},{"linkId":"/69858-9","text":"Because of a physical, mental, or emotional condition, do you have serious difficulty concentrating, remembering, or making decisions?","answer":[{"valueCoding":{"system":"http://loinc.org","code":"LA32-8","display":"No"}}]},{"linkId":"/69861-3","text":"Because of a physical, mental, or emotional condition, do you have difficulty doing errands alone such as visiting a physician's office or shopping?","answer":[{"valueCoding":{"system":"http://loinc.org","code":"LA32-8","display":"No"}}]}]},"request":{"method":"PUT","url":"QuestionnaireResponse/202205uscore-questionnaireresponse-example-3"}},{"fullUrl":"http://hapi.fhir.org/baseR4/DiagnosticReport/202205uscore-diagnosticreport-example-5","resource":{"resourceType":"DiagnosticReport","id":"202205uscore-diagnosticreport-example-5","meta":{"extension":[{"url":"http://hl7.org/fhir/StructureDefinition/instance-name","valueString":"DiagnosticReport Chest Xray Report Example"},{"url":"http://hl7.org/fhir/StructureDefinition/instance-description","valueMarkdown":"This is a DiagnosticReport chest xray report example for the *US Core DiagnosticReport Note Profile*."}],"profile":["http://hl7.org/fhir/us/core/StructureDefinition/us-core-diagnosticreport-note"],"tag":[{"code":"202201uscore"}]},"status":"final","category":[{"coding":[{"system":"http://loinc.org","code":"LP29684-5","display":"Radiology"}],"text":"Radiology"}],"code":{"coding":[{"system":"http://loinc.org","code":"30746-2","display":"Portable XR Chest Views"}],"text":"Portable XR Chest Views"},"subject":{"reference":"Patient/202205uscore-patient-example-1"},"effectiveDateTime":"2019-02-03T19:43:30+00:00","issued":"2019-02-04T19:43:30+00:00","performer":[{"reference":"Practitioner/202205uscore-practitioner-example-1","display":"Ronald Bone"}],"result":[{"reference":"Observation/202205uscore-observation-example-19","display":"Findings"},{"reference":"Observation/202205uscore-observation-example-31","display":"Impression"}],"media":[{"link":{"reference":"Media/202205uscore-media-example-2","display":"Chest Xray"}}],"presentedForm":[{"contentType":"application/xhtml","data":""}]},"request":{"method":"PUT","url":"DiagnosticReport/202205uscore-diagnosticreport-example-5"}},{"fullUrl":"http://hapi.fhir.org/baseR4/QuestionnaireResponse/202205uscore-questionnaireresponse-example-4","resource":{"resourceType":"QuestionnaireResponse","id":"202205uscore-questionnaireresponse-example-4","meta":{"extension":[{"url":"http://hl7.org/fhir/StructureDefinition/instance-name","valueString":"Hunger Vital Sign [HVS] Example"},{"url":"http://hl7.org/fhir/StructureDefinition/instance-description","valueMarkdown":"'An example of an SDC QuestionnaireResponse that represents questions and selected answers from the Hunger Vital Sign Example questionnaire represented in LOINC (code 88122-7). The example is generated using the LHC-Forms SDC Questionnaire App.'"}],"profile":["http://hl7.org/fhir/us/core/StructureDefinition/us-core-questionnaireresponse"],"tag":[{"system":"http://hl7.org/fhir/us/core/CodeSystem/us-core-tags","code":"sdoh"},{"code":"202201uscore"}]},"questionnaire":"http://hl7.org/fhir/us/sdoh-clinicalcare/Questionnaire/SDOHCC-QuestionnaireHungerVitalSign","_questionnaire":{"extension":[{"url":"http://hl7.org/fhir/us/core/StructureDefinition/us-core-extension-questionnaire-uri","valueUri":"https://example.org/forms/hsv"}]},"status":"completed","subject":{"reference":"Patient/202205uscore-patient-example-1","display":"Amy V. Shaw"},"authored":"2020-09-10T21:56:54.671000+00:00","author":{"reference":"Practitioner/202205uscore-practitioner-example-1","display":"Ronald Bone"},"item":[{"linkId":"/88122-7","text":"(I/We) worried whether (my/our) food would run out before (I/we) got money to buy more.","answer":[{"valueCoding":{"system":"http://loinc.org","code":"LA28397-0","display":"Often true"}}]},{"linkId":"/88123-5","text":"The food that (I/we) bought just didn't last, and (I/we) didn't have money to get more.","answer":[{"valueCoding":{"system":"http://loinc.org","code":"LA28397-0","display":"Often true"}}]},{"linkId":"/88124-3","text":"Food insecurity risk","answer":[{"valueCoding":{"system":"http://loinc.org","code":"LA19952-3","display":"At risk"}}]}]},"request":{"method":"PUT","url":"QuestionnaireResponse/202205uscore-questionnaireresponse-example-4"}},{"fullUrl":"http://hapi.fhir.org/baseR4/MedicationRequest/202205uscore-medicationrequest-example-3","resource":{"resourceType":"MedicationRequest","id":"202205uscore-medicationrequest-example-3","meta":{"extension":[{"url":"http://hl7.org/fhir/StructureDefinition/instance-name","valueString":"Uscore MO1 Example"},{"url":"http://hl7.org/fhir/StructureDefinition/instance-description","valueMarkdown":"This is a uscore mo1 example for the *US Core MedicationRequest Profile*."}],"profile":["http://hl7.org/fhir/us/core/StructureDefinition/us-core-medicationrequest"],"tag":[{"code":"202201uscore"}]},"status":"active","intent":"order","medicationCodeableConcept":{"coding":[{"system":"http://www.nlm.nih.gov/research/umls/rxnorm","code":"582620","display":"Nizatidine 15 MG/ML Oral Solution [Axid]"}],"text":"Nizatidine 15 MG/ML Oral Solution [Axid]"},"subject":{"reference":"Patient/202205uscore-patient-example-1","display":"Amy Shaw"},"authoredOn":"2008-04-05","requester":{"reference":"Practitioner/202205uscore-practitioner-example-1","display":"Ronald Bone, MD"},"dosageInstruction":[{"text":"10 mL bid","timing":{"repeat":{"boundsPeriod":{"start":"2008-04-05"}}}}],"dispenseRequest":{"numberOfRepeatsAllowed":1,"quantity":{"value":480,"unit":"mL","system":"http://unitsofmeasure.org","code":"mL"},"expectedSupplyDuration":{"value":30,"unit":"days","system":"http://unitsofmeasure.org","code":"d"}}},"request":{"method":"PUT","url":"MedicationRequest/202205uscore-medicationrequest-example-3"}}]}